#time,accel_x,accel_y,accel_z
381.079145,1036.288319,-1036.288319,-78141.740796
381.081678,-888.247130,148.041188,-77222.426198
381.084211,2368.659014,-1332.370696,-78294.959896
381.086745,2516.700203,-1036.288319,-78141.740796
381.089278,-740.205942,-444.123565,-77682.083497
381.091811,888.247130,-592.164754,-78448.178995
381.094344,3404.947333,-740.205942,-78601.398095
381.096877,-1184.329507,-148.041188,-79061.055394
381.099410,1776.494261,-148.041188,-77835.302597
381.101943,4145.153275,-444.123565,-77988.521696
381.104476,1480.411884,-740.205942,-79214.274493
381.107010,-2368.659014,444.123565,-77222.426198
381.109543,888.247130,-592.164754,-78294.959896
381.112076,4145.153275,-148.041188,-79367.493593
381.114609,296.082377,-888.247130,-78294.959896
381.117142,-1776.494261,0.000000,-77988.521696
381.119675,12287.418637,-740.205942,-77528.864398
381.122208,9918.759623,-1036.288319,-78448.178995
381.124741,1036.288319,-444.123565,-78448.178995
381.127275,740.205942,740.205942,-75537.016103
381.129808,444.123565,-1924.535449,-80746.465489
381.132364,2220.617826,-1480.411884,-75843.454302
381.134920,1184.329507,444.123565,-76303.111601
381.137477,2960.823768,-1480.411884,-79980.369991
381.140033,9030.512492,-296.082377,-75690.235202
381.142589,2812.782580,-888.247130,-79061.055394
381.145146,7402.059420,-296.082377,-76456.330700
381.147702,740.205942,-888.247130,-77682.083497
381.150258,-8734.430116,-740.205942,-77069.207099
381.152815,-1628.453072,1628.453072,-77069.207099
381.155371,-4441.235652,-3997.112087,-79214.274493
381.157928,-6661.853478,2664.741391,-75077.358804
381.160484,8142.265362,-1184.329507,-79980.369991
381.163040,9918.759623,-2220.617826,-78601.398095
381.165597,-9030.512492,1628.453072,-77222.426198
381.168153,-9326.594869,0.000000,-76609.549800
381.170709,-4441.235652,-740.205942,-80286.808190
381.173266,0.000000,-1036.288319,-78754.617194
381.175822,-2516.700203,1332.370696,-77222.426198
381.178378,1924.535449,1036.288319,-78448.178995
381.180935,2812.782580,-1332.370696,-79673.931792
381.183491,-8142.265362,-444.123565,-76456.330700
381.186047,-1924.535449,592.164754,-75996.673402
381.188604,-1036.288319,-1480.411884,-80133.589091
381.191160,-1184.329507,-592.164754,-77528.864398
381.193716,-6957.935855,740.205942,-76456.330700
381.196273,-3108.864956,-888.247130,-77528.864398
381.198829,-148.041188,-888.247130,-77988.521696
381.201386,-4737.318029,-444.123565,-75996.673402
381.203942,148.041188,148.041188,-77528.864398
381.206498,-592.164754,-1480.411884,-79061.055394
381.209055,148.041188,-148.041188,-76456.330700
381.211611,1184.329507,-592.164754,-77988.521696
381.214167,4293.194464,148.041188,-76609.549800
381.216724,-2220.617826,-592.164754,-79367.493593
381.219280,-8438.347739,-296.082377,-77222.426198
381.221836,-3256.906145,-740.205942,-78294.959896
381.224393,1628.453072,-1924.535449,-78294.959896
381.226949,1184.329507,-1184.329507,-77375.645298
381.229505,5033.400406,-2072.576638,-79061.055394
381.232062,888.247130,148.041188,-79061.055394
381.234628,-7550.100608,1184.329507,-78294.959896
381.237195,2664.741391,-1036.288319,-78141.740796
381.239762,12879.583391,-6513.812290,-80746.465489
381.242328,8882.471304,1480.411884,-76149.892501
381.244895,-592.164754,4293.194464,-77682.083497
381.247461,-3997.112087,-888.247130,-79061.055394
381.250028,-1776.494261,-2516.700203,-80133.589091
381.252595,6365.771101,-1036.288319,-77988.521696
381.255161,9178.553681,888.247130,-77375.645298
381.257728,6069.688724,1628.453072,-77528.864398
381.260294,-592.164754,-1924.535449,-77375.645298
381.262861,-5181.441594,-1628.453072,-77069.207099
381.265428,2516.700203,-148.041188,-78294.959896
381.267994,9030.512492,-148.041188,-78601.398095
381.270561,6365.771101,2072.576638,-76915.987999
381.273127,8438.347739,-2072.576638,-77835.302597
381.275694,4293.194464,-2368.659014,-79520.712692
381.278261,-2960.823768,296.082377,-78754.617194
381.280827,-3108.864956,2812.782580,-75843.454302
381.283394,7105.977043,-1776.494261,-78294.959896
381.285960,6957.935855,-2516.700203,-79520.712692
381.288527,-1184.329507,-444.123565,-77835.302597
381.291094,2072.576638,1036.288319,-76762.768900
381.293660,9178.553681,-148.041188,-78754.617194
381.296227,3997.112087,-1184.329507,-77528.864398
381.298793,740.205942,-740.205942,-77375.645298
381.301360,6661.853478,-444.123565,-76915.987999
381.303927,3849.070898,-1332.370696,-79673.931792
381.306493,3849.070898,-148.041188,-75843.454302
381.309060,296.082377,-296.082377,-77069.207099
381.311626,4293.194464,-888.247130,-78448.178995
381.314193,5921.647536,-592.164754,-77682.083497
381.316760,3256.906145,592.164754,-76149.892501
381.319326,4293.194464,888.247130,-78448.178995
381.321893,9474.636058,-592.164754,-76762.768900
381.324459,-1628.453072,-3701.029710,-77988.521696
381.327026,-5625.565159,0.000000,-76762.768900
381.329593,5329.482782,-592.164754,-77988.521696
381.332159,15396.283594,148.041188,-77069.207099
381.334726,-2960.823768,-148.041188,-80593.246390
381.337300,2072.576638,-3701.029710,-76762.768900
381.339874,-15396.283594,-740.205942,-80286.808190
381.342448,-9326.594869,5477.523971,-76303.111601
381.345022,7994.224174,296.082377,-78907.836294
381.347596,4145.153275,-3701.029710,-83197.971083
381.350170,-888.247130,-592.164754,-76456.330700
381.352744,-12731.542202,1036.288319,-77528.864398
381.355318,-12731.542202,740.205942,-78907.836294
381.357892,5329.482782,-2368.659014,-77222.426198
381.360466,-1184.329507,-444.123565,-79520.712692
381.363040,5181.441594,-592.164754,-77222.426198
381.365614,2960.823768,-2220.617826,-77988.521696
381.368188,-9770.718434,296.082377,-77222.426198
381.370762,-5477.523971,296.082377,-73698.386908
381.373336,-3404.947333,-2812.782580,-79673.931792
381.375910,2664.741391,-444.123565,-76456.330700
381.378484,5181.441594,740.205942,-77528.864398
381.381058,-1036.288319,-148.041188,-79520.712692
381.383632,-4589.276840,-148.041188,-77835.302597
381.386206,-5329.482782,-148.041188,-79061.055394
381.388780,2812.782580,-1184.329507,-79980.369991
381.391354,-8586.388927,-1924.535449,-78141.740796
381.393928,-10362.883188,296.082377,-76915.987999
381.396502,740.205942,-740.205942,-77222.426198
381.399076,296.082377,-3552.988522,-79520.712692
381.401650,-2220.617826,2664.741391,-74924.139704
381.404224,-444.123565,-148.041188,-77222.426198
381.406798,-2516.700203,-1924.535449,-77682.083497
381.409372,148.041188,-740.205942,-77222.426198
381.411946,-3108.864956,-444.123565,-78141.740796
381.414520,-5033.400406,-296.082377,-78294.959896
381.417094,-6809.894666,296.082377,-78754.617194
381.419668,1332.370696,1036.288319,-77222.426198
381.422242,1776.494261,-1776.494261,-78907.836294
381.424816,-3552.988522,-2220.617826,-78448.178995
381.427390,1628.453072,3404.947333,-75843.454302
381.429964,-7402.059420,-740.205942,-80133.589091
381.432538,1480.411884,-148.041188,-75230.577904
381.435112,8438.347739,-4441.235652,-80133.589091
381.437686,10807.006753,-444.123565,-75690.235202
381.440261,1036.288319,1332.370696,-76762.768900
381.442836,-4145.153275,-296.082377,-77988.521696
381.445411,1036.288319,-3256.906145,-80286.808190
381.447986,10658.965565,-1332.370696,-77069.207099
381.450561,7105.977043,1776.494261,-79367.493593
381.453136,8882.471304,740.205942,-78141.740796
381.455711,1332.370696,-2664.741391,-78141.740796
381.458286,-3552.988522,-888.247130,-78294.959896
381.460861,2664.741391,-444.123565,-77528.864398
381.463436,5625.565159,0.000000,-77835.302597
381.466011,9030.512492,2516.700203,-76609.549800
381.468586,6809.894666,-1924.535449,-77835.302597
381.471161,1184.329507,-3552.988522,-79520.712692
381.473736,148.041188,148.041188,-76762.768900
381.476311,-1628.453072,1628.453072,-78294.959896
381.478886,11843.295072,592.164754,-76456.330700
381.481461,5181.441594,-4441.235652,-79673.931792
381.484036,-3849.070898,0.000000,-76762.768900
381.486611,10362.883188,1036.288319,-75996.673402
381.489186,11695.253884,-444.123565,-80899.684589
381.491761,1332.370696,1332.370696,-75383.797003
381.494336,-2220.617826,0.000000,-78601.398095
381.496912,9178.553681,-3256.906145,-79061.055394
381.499487,1628.453072,-1332.370696,-77375.645298
381.502062,2516.700203,3108.864956,-75996.673402
381.504637,5033.400406,-1332.370696,-77988.521696
381.507212,5033.400406,-2220.617826,-79520.712692
381.509787,7402.059420,-296.082377,-77069.207099
381.512362,3552.988522,1480.411884,-76915.987999
381.514937,5329.482782,-148.041188,-79673.931792
381.517512,-2368.659014,-3256.906145,-77682.083497
381.520087,-4885.359217,444.123565,-76915.987999
381.522662,10510.924376,740.205942,-78448.178995
381.525237,11251.130318,-444.123565,-78907.836294
381.527812,-4293.194464,-3701.029710,-77528.864398
381.530387,-16136.489536,-148.041188,-78754.617194
381.532962,-1924.535449,-888.247130,-78294.959896
381.535537,-4589.276840,2220.617826,-78294.959896
381.538112,6365.771101,296.082377,-75996.673402
381.540687,6513.812290,-2664.741391,-80899.684589
381.543264,-5033.400406,-2072.576638,-77835.302597
381.545840,-15248.242405,2368.659014,-76149.892501
381.548416,-6957.935855,-444.123565,-79673.931792
381.550993,8586.388927,-2368.659014,-79827.150892
381.553569,5477.523971,-888.247130,-77222.426198
381.556146,-5625.565159,740.205942,-77222.426198
381.558722,-2516.700203,-592.164754,-77682.083497
381.561298,-7402.059420,-2072.576638,-79827.150892
381.563875,-5921.647536,1036.288319,-75383.797003
381.566451,592.164754,-1184.329507,-78907.836294
381.569028,2220.617826,-1776.494261,-79673.931792
381.571604,-1184.329507,740.205942,-75996.673402
381.574180,-3404.947333,-296.082377,-78294.959896
381.576757,0.000000,-1036.288319,-78601.398095
381.579333,-444.123565,0.000000,-78141.740796
381.581910,-5181.441594,-740.205942,-78141.740796
381.584486,-5625.565159,-296.082377,-77682.083497
381.587063,-2664.741391,444.123565,-78754.617194
381.589639,-1480.411884,-888.247130,-77988.521696
381.592215,592.164754,-1184.329507,-77528.864398
381.594792,-148.041188,-148.041188,-78907.836294
381.597368,1628.453072,-740.205942,-77375.645298
381.599945,-6809.894666,-2812.782580,-78448.178995
381.602521,-9326.594869,-2072.576638,-78141.740796
381.605097,1036.288319,1924.535449,-79214.274493
381.607674,-2368.659014,-148.041188,-79367.493593
381.610250,-740.205942,2072.576638,-75996.673402
381.612827,8882.471304,-3552.988522,-77988.521696
381.615403,-8290.306550,-592.164754,-79520.712692
381.617979,-11843.295072,2220.617826,-76303.111601
381.620556,3108.864956,-148.041188,-77835.302597
381.623132,13027.624579,-4885.359217,-82125.437386
381.625709,10214.842000,-740.205942,-74004.825107
381.628285,-2960.823768,3552.988522,-76149.892501
381.630861,-3701.029710,1184.329507,-78141.740796
381.633438,3256.906145,-4145.153275,-78907.836294
381.636014,3997.112087,-3256.906145,-77375.645298
381.638591,10362.883188,3108.864956,-77222.426198
381.641167,17320.819043,-148.041188,-78601.398095
381.643743,-1480.411884,-296.082377,-78141.740796
381.646318,-4737.318029,-444.123565,-76762.768900
381.648893,3997.112087,-1924.535449,-80133.589091
381.651468,10214.842000,-444.123565,-79061.055394
381.654043,7550.100608,2220.617826,-75690.235202
381.656618,3849.070898,-148.041188,-77528.864398
381.659193,6513.812290,-1924.535449,-79061.055394
381.661768,-4441.235652,-592.164754,-76915.987999
381.664343,296.082377,2220.617826,-77222.426198
381.666918,6217.729913,-2516.700203,-79061.055394
381.669493,5625.565159,-740.205942,-76303.111601
381.672068,1036.288319,-1480.411884,-79827.150892
381.674643,5921.647536,-1924.535449,-76762.768900
381.677218,4885.359217,-592.164754,-78601.398095
381.679793,2812.782580,444.123565,-76915.987999
381.682368,5477.523971,-1184.329507,-77682.083497
381.684943,3552.988522,-2072.576638,-79367.493593
381.687518,148.041188,148.041188,-77222.426198
381.690093,4737.318029,0.000000,-78141.740796
381.692668,5329.482782,-296.082377,-79214.274493
381.695242,9030.512492,148.041188,-78601.398095
381.697817,7105.977043,-888.247130,-78754.617194
381.700392,-5181.441594,1036.288319,-78294.959896
381.702967,0.000000,-1332.370696,-77375.645298
381.705542,-2516.700203,-3404.947333,-78141.740796
381.708117,2812.782580,2960.823768,-76149.892501
381.710692,20281.642811,-1036.288319,-78601.398095
381.713267,-4589.276840,-4441.235652,-79214.274493
381.715842,-13915.871710,1184.329507,-75690.235202
381.718417,-6957.935855,-1628.453072,-76609.549800
381.720992,3849.070898,0.000000,-79827.150892
381.723567,7550.100608,-148.041188,-76609.549800
381.726142,2960.823768,-592.164754,-79214.274493
381.728717,-1776.494261,-296.082377,-78294.959896
381.731292,-16136.489536,-148.041188,-76609.549800
381.733867,-13471.748144,1036.288319,-79367.493593
381.736442,9326.594869,-4145.153275,-79367.493593
381.739017,1628.453072,-888.247130,-78754.617194
381.741592,2072.576638,888.247130,-76762.768900
381.744167,0.000000,740.205942,-76303.111601
381.746742,-9622.677246,-3404.947333,-81972.218286
381.749316,-11251.130318,592.164754,-75230.577904
381.751890,5329.482782,-1184.329507,-77682.083497
381.754465,7402.059420,-2960.823768,-78141.740796
381.757039,-11103.089130,2220.617826,-75843.454302
381.759614,3552.988522,0.000000,-77375.645298
381.762188,-4589.276840,-3404.947333,-81818.999186
381.764762,-2368.659014,296.082377,-77375.645298
381.767337,-3997.112087,1036.288319,-75537.016103
381.769911,-3997.112087,-1628.453072,-79673.931792
381.772486,1332.370696,-1480.411884,-77069.207099
381.775060,-2516.700203,-1184.329507,-78907.836294
381.777635,1332.370696,-148.041188,-76915.987999
381.780209,-444.123565,0.000000,-78141.740796
381.782783,-2664.741391,-740.205942,-78294.959896
381.785358,-7698.141797,-888.247130,-75843.454302
381.787932,-8734.430116,1184.329507,-78907.836294
381.790507,4145.153275,296.082377,-80286.808190
381.793081,4441.235652,-592.164754,-76303.111601
381.795656,-3404.947333,-2072.576638,-79673.931792
381.798230,3701.029710,1332.370696,-77069.207099
381.800804,-13027.624579,-296.082377,-80133.589091
381.803379,-444.123565,740.205942,-77222.426198
381.805953,12879.583391,-6069.688724,-81512.560987
381.808528,11991.336260,0.000000,-75383.797003
381.811102,444.123565,2516.700203,-77222.426198
381.813676,-5625.565159,148.041188,-76303.111601
381.816251,-1184.329507,-2664.741391,-79980.369991
381.818825,8734.430116,-2960.823768,-78294.959896
381.821400,8438.347739,2664.741391,-76915.987999
381.823974,13175.665768,-444.123565,-77375.645298
381.826549,6069.688724,-148.041188,-77528.864398
381.829123,-4145.153275,-1480.411884,-77682.083497
381.831697,592.164754,-1036.288319,-77988.521696
381.834272,3849.070898,0.000000,-78294.959896
381.836846,10955.047942,-148.041188,-77375.645298
381.839421,7254.018232,-2072.576638,-77835.302597
381.841995,-2812.782580,-2664.741391,-79214.274493
381.844569,-1924.535449,1628.453072,-76762.768900
381.847144,6365.771101,-740.205942,-77988.521696
381.849718,-148.041188,-1628.453072,-78294.959896
381.852289,592.164754,-1184.329507,-76149.892501
381.854861,7105.977043,1628.453072,-77682.083497
381.857433,7254.018232,-1036.288319,-78907.836294
381.860004,2664.741391,444.123565,-75996.673402
381.862576,3256.906145,444.123565,-77222.426198
381.865148,4441.235652,-2516.700203,-78907.836294
381.867720,5625.565159,0.000000,-76915.987999
381.870291,5477.523971,0.000000,-77988.521696
381.872863,3552.988522,-740.205942,-79061.055394
381.875435,11547.212695,1924.535449,-77835.302597
381.878006,4145.153275,148.041188,-77528.864398
381.880578,-1184.329507,-2960.823768,-77835.302597
381.883150,-2960.823768,-296.082377,-78294.959896
381.885721,3552.988522,-888.247130,-79520.712692
381.888293,7550.100608,740.205942,-77222.426198
381.890865,6069.688724,1184.329507,-79061.055394
381.893436,-3256.906145,-3552.988522,-77682.083497
381.896008,-13323.706956,-740.205942,-76762.768900
381.898580,-11695.253884,888.247130,-76303.111601
381.901151,7994.224174,-1332.370696,-79367.493593
381.903723,4885.359217,-3404.947333,-79367.493593
381.906295,296.082377,-296.082377,-76762.768900
381.908866,-4589.276840,2368.659014,-77069.207099
381.911438,-9326.594869,-1776.494261,-77682.083497
381.914010,-11399.171507,-1480.411884,-77222.426198
381.916582,6217.729913,-2072.576638,-78448.178995
381.919153,3849.070898,-2516.700203,-78907.836294
381.921725,2960.823768,2072.576638,-75537.016103
381.924297,-10362.883188,740.205942,-75690.235202
381.926868,-5033.400406,-1332.370696,-78601.398095
381.929440,-3997.112087,-1036.288319,-78294.959896
381.932012,-2664.741391,444.123565,-77375.645298
381.934583,4737.318029,-296.082377,-76149.892501
381.937155,-1184.329507,-592.164754,-80133.589091
381.939727,-8438.347739,-296.082377,-75843.454302
381.942298,-4737.318029,740.205942,-76303.111601
381.944870,-4441.235652,-740.205942,-79061.055394
381.947442,2960.823768,-592.164754,-78907.836294
381.950013,-2516.700203,-444.123565,-77069.207099
381.952585,-1184.329507,-1036.288319,-79980.369991
381.955155,4145.153275,148.041188,-78601.398095
381.957725,-7698.141797,-148.041188,-77375.645298
381.960295,-6069.688724,1924.535449,-77069.207099
381.962865,-1924.535449,-1776.494261,-79980.369991
381.965435,-5477.523971,-1924.535449,-76915.987999
381.968005,296.082377,1184.329507,-79061.055394
381.970574,11399.171507,-1332.370696,-78448.178995
381.973144,-2960.823768,-2072.576638,-80133.589091
381.975714,-12139.377449,4145.153275,-75690.235202
381.978284,-2220.617826,148.041188,-80440.027290
381.980854,8882.471304,-4293.194464,-78601.398095
381.983424,8734.430116,-2220.617826,-77375.645298
381.985994,12731.542202,592.164754,-79673.931792
381.988564,0.000000,3108.864956,-77682.083497
381.991134,-8438.347739,-888.247130,-76609.549800
381.993703,-2812.782580,-1628.453072,-78294.959896
381.996273,10362.883188,-740.205942,-78141.740796
381.998843,14063.912898,-592.164754,-78141.740796
382.001413,3552.988522,148.041188,-76762.768900
382.003983,740.205942,-740.205942,-76609.549800
382.006553,1480.411884,-1776.494261,-79827.150892
382.009123,-1480.411884,-1332.370696,-76609.549800
382.011693,5033.400406,1332.370696,-77835.302597
382.014263,14063.912898,-2072.576638,-78907.836294
382.016833,5773.606348,-2812.782580,-78448.178995
382.019402,-1628.453072,0.000000,-77069.207099
382.021972,1628.453072,592.164754,-78601.398095
382.024542,740.205942,-148.041188,-79061.055394
382.027112,444.123565,-296.082377,-76303.111601
382.029682,12139.377449,-2960.823768,-78754.617194
382.032252,4145.153275,-2664.741391,-79827.150892
382.034822,592.164754,2368.659014,-74924.139704
382.037392,-2072.576638,2072.576638,-77222.426198
382.039962,3701.029710,-1776.494261,-78907.836294
382.042532,6809.894666,-2368.659014,-77222.426198
382.045101,3108.864956,-148.041188,-77835.302597
382.047671,5329.482782,1924.535449,-75996.673402
382.050241,9326.594869,148.041188,-79673.931792
382.052811,1332.370696,-444.123565,-79367.493593
382.055381,-5773.606348,-1036.288319,-76762.768900
382.057950,5625.565159,-1184.329507,-76915.987999
382.060519,7550.100608,1184.329507,-80593.246390
382.063089,13027.624579,-1332.370696,-77682.083497
382.065658,-10066.800811,-2664.741391,-78448.178995
382.068227,-2812.782580,-740.205942,-77835.302597
382.070796,-11991.336260,-592.164754,-79061.055394
382.073365,-9030.512492,6513.812290,-75996.673402
382.075934,16728.654289,-2812.782580,-79827.150892
382.078504,7254.018232,-4737.318029,-81052.903688
382.081073,-10658.965565,592.164754,-76149.892501
382.083642,-16580.613101,3552.988522,-75996.673402
382.086211,-3997.112087,-1184.329507,-80593.246390
382.088780,1628.453072,-3108.864956,-78294.959896
382.091349,-1924.535449,-444.123565,-77528.864398
382.093919,7105.977043,-148.041188,-79367.493593
382.096488,-3108.864956,-1924.535449,-78907.836294
382.099057,-13767.830521,3997.112087,-74770.920605
382.101626,-3108.864956,-3256.906145,-80133.589091
382.104195,5329.482782,-2960.823768,-80286.808190
382.106764,-4885.359217,0.000000,-77069.207099
382.109334,1776.494261,1776.494261,-73851.606007
382.111903,-6365.771101,-2516.700203,-81972.218286
382.114472,-5329.482782,148.041188,-75843.454302
382.117041,-4145.153275,-296.082377,-76456.330700
382.119610,-3849.070898,-296.082377,-78754.617194
382.122179,7846.182985,-148.041188,-76303.111601
382.124749,-5477.523971,-2072.576638,-78294.959896
382.127318,-5625.565159,-1480.411884,-77375.645298
382.129887,-4145.153275,1036.288319,-77682.083497
382.132456,-2516.700203,-2072.576638,-78907.836294
382.135025,-7550.100608,2516.700203,-75690.235202
382.137594,3404.947333,-296.082377,-78294.959896
382.140164,7254.018232,-5033.400406,-79520.712692
382.142733,-2960.823768,148.041188,-77069.207099
382.145302,-444.123565,2072.576638,-78754.617194
382.147871,-7698.141797,2664.741391,-77069.207099
382.150440,-888.247130,-2516.700203,-79673.931792
382.153009,13323.706956,-1036.288319,-77528.864398
382.155579,11547.212695,-3701.029710,-80286.808190
382.158148,4293.194464,2516.700203,-74924.139704
382.160715,-7254.018232,2368.659014,-78907.836294
382.163281,592.164754,-3849.070898,-77988.521696
382.165848,4441.235652,-2368.659014,-78141.740796
382.168415,9622.677246,148.041188,-76915.987999
382.170982,15544.324782,148.041188,-77528.864398
382.173549,5181.441594,-2960.823768,-80286.808190
382.176116,-3552.988522,-2220.617826,-77069.207099
382.178683,888.247130,444.123565,-77069.207099
382.181249,4441.235652,-148.041188,-80440.027290
382.183816,9030.512492,592.164754,-76456.330700
382.186383,9918.759623,-2812.782580,-77682.083497
382.188950,148.041188,-2812.782580,-78754.617194
382.191517,1924.535449,1332.370696,-76762.768900
382.194084,2960.823768,1184.329507,-78141.740796
382.196650,6957.935855,-1924.535449,-79827.150892
382.199217,6809.894666,-2072.576638,-77069.207099
382.201784,4441.235652,-1924.535449,-77988.521696
382.204351,3108.864956,-592.164754,-77682.083497
382.206918,740.205942,1184.329507,-77988.521696
382.209485,2368.659014,740.205942,-77988.521696
382.212051,6217.729913,-1776.494261,-78601.398095
382.214618,11251.130318,-3404.947333,-77682.083497
382.217185,3701.029710,444.123565,-79367.493593
382.219752,3997.112087,2664.741391,-77222.426198
382.222319,3701.029710,-2516.700203,-81206.122788
382.224886,-8438.347739,-740.205942,-79061.055394
382.227452,6365.771101,1332.370696,-75690.235202
382.230019,11843.295072,-888.247130,-80899.684589
382.232586,5773.606348,1776.494261,-77375.645298
382.235153,-4441.235652,-2368.659014,-79367.493593
382.237720,-14508.036463,-3108.864956,-80133.589091
382.240287,-11399.171507,3849.070898,-74617.701505
382.242853,-2516.700203,1184.329507,-79061.055394
382.245420,11695.253884,-2368.659014,-77835.302597
382.247987,6809.894666,-3701.029710,-77682.083497
382.250554,-11843.295072,2812.782580,-77375.645298
382.253121,-10510.924376,148.041188,-77375.645298
382.255688,-5033.400406,-888.247130,-79214.274493
382.258255,-1184.329507,-2368.659014,-78294.959896
382.260821,5033.400406,-888.247130,-77375.645298
382.263387,3108.864956,-888.247130,-78754.617194
382.265953,-3701.029710,-296.082377,-79673.931792
382.268518,-9622.677246,1036.288319,-77375.645298
382.271084,-4737.318029,148.041188,-78141.740796
382.273649,3849.070898,-1480.411884,-79673.931792
382.276215,740.205942,-888.247130,-77988.521696
382.278781,-888.247130,-592.164754,-77528.864398
382.281346,-3997.112087,-3256.906145,-80440.027290
382.283912,-3849.070898,148.041188,-79214.274493
382.286477,-2664.741391,-1480.411884,-77528.864398
382.289043,-3552.988522,-740.205942,-79061.055394
382.291609,3701.029710,-1036.288319,-77375.645298
382.294174,-5773.606348,-2664.741391,-78907.836294
382.296740,-9474.636058,0.000000,-76915.987999
382.299305,-1036.288319,-444.123565,-79214.274493
382.301871,-5625.565159,1924.535449,-77682.083497
382.304437,-3404.947333,1924.535449,-76762.768900
382.307002,5773.606348,-2368.659014,-78754.617194
382.309568,-3108.864956,-1628.453072,-80286.808190
382.312133,-2812.782580,1036.288319,-74464.482406
382.314699,-11843.295072,1184.329507,-78448.178995
382.317265,10214.842000,-740.205942,-76762.768900
382.319830,13767.830521,-3997.112087,-79827.150892
382.322396,6957.935855,2072.576638,-76762.768900
382.324961,4441.235652,1776.494261,-77835.302597
382.327527,-4737.318029,-2220.617826,-78141.740796
382.330093,888.247130,-592.164754,-77988.521696
382.332658,8438.347739,-740.205942,-78448.178995
382.335224,11991.336260,-148.041188,-79367.493593
382.337789,10807.006753,-888.247130,-77375.645298
382.340355,1480.411884,-2664.741391,-78754.617194
382.342921,-1480.411884,-444.123565,-78294.959896
382.345483,2368.659014,-1036.288319,-78141.740796
382.348046,3701.029710,-148.041188,-78448.178995
382.350609,11251.130318,444.123565,-75843.454302
382.353172,7254.018232,-2516.700203,-79061.055394
382.355735,2220.617826,-2812.782580,-80133.589091
382.358297,-1628.453072,740.205942,-76456.330700
382.360860,5181.441594,0.000000,-77682.083497
382.363423,13323.706956,-2664.741391,-80286.808190
382.365986,6365.771101,-2220.617826,-79520.712692
382.368549,888.247130,-296.082377,-78294.959896
382.371111,1184.329507,-740.205942,-79980.369991
382.373674,5329.482782,-1184.329507,-77988.521696
382.376237,2072.576638,-1036.288319,-78448.178995
382.378800,9030.512492,296.082377,-75996.673402
382.381362,7550.100608,-2072.576638,-80593.246390
382.383925,3552.988522,-444.123565,-77375.645298
382.386488,-1184.329507,740.205942,-75843.454302
382.389051,-2812.782580,-3256.906145,-80746.465489
382.391614,5033.400406,-888.247130,-76609.549800
382.394176,9326.594869,3256.906145,-77222.426198
382.396739,7254.018232,-148.041188,-79061.055394
382.399302,2664.741391,-2368.659014,-75843.454302
382.401865,-21021.848753,-1776.494261,-78601.398095
382.404427,-12435.459826,5033.400406,-74770.920605
382.406990,9030.512492,-1184.329507,-78294.959896
382.409553,4885.359217,-3108.864956,-80440.027290
382.412116,4737.318029,0.000000,-75537.016103
382.414679,-6069.688724,-2516.700203,-80440.027290
382.417241,-14656.077652,-444.123565,-77069.207099
382.419804,-6365.771101,2368.659014,-77682.083497
382.422367,2220.617826,-3404.947333,-79367.493593
382.424930,7698.141797,-2220.617826,-76762.768900
382.427493,-3552.988522,740.205942,-78294.959896
382.430055,-2368.659014,0.000000,-78754.617194
382.432618,-9326.594869,-296.082377,-79520.712692
382.435181,-4589.276840,1628.453072,-77069.207099
382.437744,3256.906145,-1332.370696,-78448.178995
382.440306,-3997.112087,-148.041188,-79673.931792
382.442869,-3701.029710,1480.411884,-76149.892501
382.445432,-6217.729913,-1184.329507,-78601.398095
382.447994,-1776.494261,-296.082377,-77988.521696
382.450555,-1184.329507,148.041188,-76609.549800
382.453116,1184.329507,-296.082377,-77528.864398
382.455678,-4145.153275,-1036.288319,-77682.083497
382.458239,-3997.112087,-1332.370696,-76762.768900
382.460801,-7402.059420,-1628.453072,-77682.083497
382.463362,-1628.453072,296.082377,-77528.864398
382.465924,5477.523971,2368.659014,-78141.740796
382.468485,6661.853478,-1924.535449,-79827.150892
382.471047,-5477.523971,-2368.659014,-78754.617194
382.473608,-11251.130318,3256.906145,-77222.426198
382.476170,1924.535449,592.164754,-78907.836294
382.478731,7550.100608,-3997.112087,-78754.617194
382.481293,9770.718434,148.041188,-76915.987999
382.483854,12139.377449,1332.370696,-80593.246390
382.486416,2220.617826,148.041188,-77528.864398
382.488977,-6809.894666,-1184.329507,-77375.645298
382.491539,-2664.741391,-148.041188,-78601.398095
382.494100,19097.313304,-1036.288319,-79061.055394
382.496662,13027.624579,-444.123565,-79520.712692
382.499223,-1184.329507,2812.782580,-75843.454302
382.501785,740.205942,-2220.617826,-80440.027290
382.504346,2220.617826,-2368.659014,-79673.931792
382.506907,1036.288319,-296.082377,-76762.768900
382.509469,6069.688724,1480.411884,-78294.959896
382.512030,8734.430116,-1332.370696,-79367.493593
382.514592,1184.329507,-4441.235652,-78448.178995
382.517153,-444.123565,444.123565,-76456.330700
382.519715,5329.482782,1332.370696,-79061.055394
382.522276,3256.906145,-592.164754,-78141.740796
382.524838,7994.224174,-444.123565,-75383.797003
382.527399,7550.100608,-2072.576638,-79214.274493
382.529961,148.041188,-592.164754,-78448.178995
382.532522,3552.988522,444.123565,-76149.892501
382.535084,4885.359217,444.123565,-78448.178995
382.537645,13323.706956,0.000000,-78907.836294
382.540207,8882.471304,-296.082377,-78294.959896
382.542768,-444.123565,-444.123565,-78907.836294
382.545330,-888.247130,-1924.535449,-77988.521696
382.547891,-3108.864956,-1184.329507,-79367.493593
382.550452,6217.729913,-888.247130,-77069.207099
382.553013,10362.883188,1184.329507,-76915.987999
382.555575,-3849.070898,-148.041188,-81818.999186
382.558136,2220.617826,-4293.194464,-75383.797003
382.560697,-21021.848753,-3997.112087,-78601.398095
382.563258,-12139.377449,5329.482782,-75537.016103
382.565819,12731.542202,-888.247130,-78601.398095
382.568380,5477.523971,-3404.947333,-80133.589091
382.570942,1776.494261,0.000000,-75996.673402
382.573503,-8734.430116,0.000000,-78294.959896
382.576064,-13619.789333,148.041188,-78754.617194
382.578625,888.247130,-1332.370696,-77222.426198
382.581186,-444.123565,-1184.329507,-79214.274493
382.583747,5773.606348,1332.370696,-77682.083497
382.586309,740.205942,-148.041188,-78141.740796
382.588870,-12139.377449,-296.082377,-78294.959896
382.591431,-3552.988522,-296.082377,-75383.797003
382.593992,-2072.576638,-444.123565,-80899.684589
382.596553,2516.700203,1332.370696,-75843.454302
382.599114,-1924.535449,740.205942,-77835.302597
382.601676,-7698.141797,-1184.329507,-79827.150892
382.604237,-1184.329507,-1628.453072,-77835.302597
382.606798,-2664.741391,-1924.535449,-79214.274493
382.609359,-1480.411884,1924.535449,-78448.178995
382.611920,2812.782580,592.164754,-77988.521696
382.614481,-7846.182985,-592.164754,-79214.274493
382.617043,-8882.471304,-740.205942,-76149.892501
382.619604,-740.205942,-444.123565,-78448.178995
382.622165,-740.205942,0.000000,-79214.274493
382.624726,5033.400406,-2812.782580,-75996.673402
382.627287,-5773.606348,-1332.370696,-78141.740796
382.629848,-888.247130,-740.205942,-79367.493593
382.632410,-8734.430116,444.123565,-78448.178995
382.634971,-592.164754,-1036.288319,-77528.864398
382.637532,14952.160028,-3849.070898,-77682.083497
382.640093,16284.530724,-148.041188,-77069.207099
382.642654,6069.688724,1776.494261,-76762.768900
382.645215,-10214.842000,1036.288319,-78294.959896
382.647776,-1480.411884,-2072.576638,-77682.083497
382.650338,12435.459826,-2664.741391,-78294.959896
382.652897,7254.018232,1628.453072,-76762.768900
382.655457,17468.860231,2368.659014,-77069.207099
382.658016,6809.894666,-3849.070898,-79980.369991
382.660576,-6957.935855,-148.041188,-75690.235202
382.663135,-2664.741391,-148.041188,-78448.178995
382.665695,6809.894666,-1776.494261,-79520.712692
382.668254,15692.365970,1036.288319,-77222.426198
382.670814,-2368.659014,-2960.823768,-77375.645298
382.673373,-3701.029710,-888.247130,-78754.617194
382.675933,13471.748144,740.205942,-77069.207099
382.678492,-148.041188,-1628.453072,-78907.836294
382.681052,2516.700203,2516.700203,-72779.072310
382.683611,12879.583391,-3849.070898,-80899.684589
382.686171,3849.070898,-444.123565,-78141.740796
382.688730,1480.411884,444.123565,-74158.044206
382.691290,592.164754,-592.164754,-77988.521696
382.693850,11695.253884,0.000000,-78907.836294
382.696409,15100.201217,-2516.700203,-77375.645298
382.698969,0.000000,444.123565,-78448.178995
382.701528,-5329.482782,-740.205942,-77528.864398
382.704088,-3552.988522,-1480.411884,-79520.712692
382.706647,6809.894666,2220.617826,-77375.645298
382.709207,16432.571912,1480.411884,-76609.549800
382.711766,-4293.194464,-296.082377,-80746.465489
382.714326,-2664.741391,-1184.329507,-76456.330700
382.716885,-17024.736666,-1036.288319,-79520.712692
382.719445,-16136.489536,5921.647536,-78294.959896
382.722004,15840.407159,-1628.453072,-76609.549800
382.724564,7254.018232,-4885.359217,-81972.218286
382.727123,1036.288319,1332.370696,-73545.167808
382.729683,-12879.583391,1184.329507,-77988.521696
382.732242,-16728.654289,-1480.411884,-78754.617194
382.734802,-740.205942,-1184.329507,-77682.083497
382.737361,7402.059420,-1776.494261,-77528.864398
382.739921,5773.606348,-444.123565,-77528.864398
382.742480,-3849.070898,444.123565,-76303.111601
382.745040,-7402.059420,-1332.370696,-79520.712692
382.747599,-3701.029710,-740.205942,-76762.768900
382.750159,-1480.411884,-888.247130,-77988.521696
382.752719,888.247130,592.164754,-77375.645298
382.755276,148.041188,1036.288319,-76609.549800
382.757834,-6365.771101,-1036.288319,-78294.959896
382.760393,-5921.647536,-1924.535449,-79827.150892
382.762951,888.247130,-444.123565,-77835.302597
382.765510,-888.247130,1036.288319,-80286.808190
382.768068,-4737.318029,-592.164754,-77682.083497
382.770627,-7105.977043,-296.082377,-78141.740796
382.773186,-3701.029710,-2516.700203,-79673.931792
382.775744,-5625.565159,1036.288319,-77222.426198
382.778303,5033.400406,-296.082377,-77375.645298
382.780861,2812.782580,-1924.535449,-78448.178995
382.783420,-4885.359217,1924.535449,-79367.493593
382.785978,-5921.647536,-148.041188,-78141.740796
382.788537,-3404.947333,-1332.370696,-79673.931792
382.791096,13767.830521,-1036.288319,-77835.302597
382.793654,20429.683999,-592.164754,-76915.987999
382.796213,-2220.617826,2664.741391,-77528.864398
382.798771,-5625.565159,1776.494261,-77222.426198
382.801330,1628.453072,-5921.647536,-79520.712692
382.803889,2220.617826,-3552.988522,-79214.274493
382.806447,10955.047942,4441.235652,-74617.701505
382.809006,19837.519246,-592.164754,-80899.684589
382.811564,4589.276840,-1332.370696,-79061.055394
382.814123,-10214.842000,148.041188,-75843.454302
382.816681,1332.370696,-1332.370696,-80286.808190
382.819240,7550.100608,-1036.288319,-79367.493593
382.821799,3552.988522,2220.617826,-76149.892501
382.824357,9326.594869,-296.082377,-75690.235202
382.826916,6809.894666,-3701.029710,-79827.150892
382.829474,-592.164754,592.164754,-77682.083497
382.832033,-592.164754,3404.947333,-75230.577904
382.834592,8142.265362,-2368.659014,-78907.836294
382.837150,10955.047942,-444.123565,-77682.083497
382.839709,888.247130,-1480.411884,-76915.987999
382.842267,1332.370696,592.164754,-77222.426198
382.844826,9918.759623,-444.123565,-78448.178995
382.847384,12731.542202,-1036.288319,-78907.836294
382.849943,1628.453072,-148.041188,-77222.426198
382.852502,888.247130,-1332.370696,-77988.521696
382.855060,-888.247130,-1332.370696,-80286.808190
382.857619,1184.329507,-592.164754,-77682.083497
382.860177,8882.471304,2220.617826,-77835.302597
382.862736,6957.935855,-592.164754,-79980.369991
382.865294,1332.370696,-5773.606348,-76149.892501
382.867853,-20577.725188,-2072.576638,-77835.302597
382.870411,-15100.201217,5181.441594,-75996.673402
382.872969,11843.295072,-2516.700203,-78754.617194
382.875528,7254.018232,-3108.864956,-79061.055394
382.878086,-740.205942,-148.041188,-76456.330700
382.880645,-3701.029710,0.000000,-78601.398095
382.883203,-10955.047942,-1036.288319,-79061.055394
382.885762,-4293.194464,-1036.288319,-75383.797003
382.888320,-2072.576638,-1036.288319,-77835.302597
382.890879,9770.718434,-148.041188,-78141.740796
382.893437,2664.741391,740.205942,-76915.987999
382.895996,-15396.283594,592.164754,-78754.617194
382.898554,-7550.100608,-148.041188,-76915.987999
382.901113,7254.018232,-1480.411884,-79061.055394
382.903671,-6069.688724,-1480.411884,-80286.808190
382.906230,-1628.453072,2072.576638,-72319.415011
382.908788,-5033.400406,-2072.576638,-81206.122788
382.911347,-2960.823768,-592.164754,-77528.864398
382.913905,-3997.112087,-296.082377,-76456.330700
382.916463,-3997.112087,1184.329507,-79980.369991
382.919022,148.041188,-888.247130,-76762.768900
382.921580,-11843.295072,-2516.700203,-78601.398095
382.924139,-3552.988522,1332.370696,-76609.549800
382.926697,2368.659014,-1628.453072,-78601.398095
382.929256,-148.041188,-1776.494261,-78754.617194
382.931814,-3849.070898,1776.494261,-74464.482406
382.934373,0.000000,0.000000,-77988.521696
382.936931,-8142.265362,-888.247130,-78754.617194
382.939490,7254.018232,-2812.782580,-77528.864398
382.942048,14952.160028,-296.082377,-77069.207099
382.944607,15544.324782,1184.329507,-79061.055394
382.947165,-2812.782580,444.123565,-76303.111601
382.949724,-9326.594869,-1184.329507,-79061.055394
382.952282,3701.029710,-3256.906145,-80746.465489
382.954840,12435.459826,-296.082377,-78141.740796
382.957399,11547.212695,1184.329507,-77682.083497
382.959956,7846.182985,-148.041188,-77835.302597
382.962513,2220.617826,-1184.329507,-79061.055394
382.965070,-592.164754,-1480.411884,-77375.645298
382.967628,-2516.700203,-444.123565,-77682.083497
382.970185,10955.047942,2220.617826,-76609.549800
382.972742,5625.565159,-1776.494261,-77835.302597
382.975299,3404.947333,-1480.411884,-75843.454302
382.977856,4293.194464,-888.247130,-78754.617194
382.980414,2664.741391,2072.576638,-78141.740796
382.982971,6069.688724,-444.123565,-76915.987999
382.985528,5625.565159,-148.041188,-75996.673402
382.988085,5477.523971,-1332.370696,-80286.808190
382.990642,6365.771101,-2368.659014,-76456.330700
382.993199,2960.823768,888.247130,-78141.740796
382.995757,11991.336260,1036.288319,-78907.836294
382.998314,1184.329507,-740.205942,-79061.055394
383.000871,592.164754,-740.205942,-76915.987999
383.003428,0.000000,-1628.453072,-79827.150892
383.005985,3701.029710,-1332.370696,-78907.836294
383.008543,11547.212695,1332.370696,-76456.330700
383.011100,-4885.359217,592.164754,-78907.836294
383.013657,-1480.411884,-2812.782580,-76915.987999
383.016214,-15396.283594,-444.123565,-78141.740796
383.018771,-12435.459826,3108.864956,-76149.892501
383.021328,4441.235652,-148.041188,-77988.521696
383.023886,7994.224174,-3108.864956,-80440.027290
383.026443,1924.535449,-888.247130,-76149.892501
383.029000,-14211.954086,2072.576638,-76609.549800
383.031557,-13619.789333,1332.370696,-77069.207099
383.034114,296.082377,-4293.194464,-78907.836294
383.036672,2516.700203,-888.247130,-76303.111601
383.039229,3701.029710,148.041188,-77682.083497
383.041786,2072.576638,-740.205942,-77069.207099
383.044343,-11399.171507,-592.164754,-78754.617194
383.046900,2516.700203,0.000000,-76762.768900
383.049458,-4145.153275,-3701.029710,-80746.465489
383.052015,2220.617826,-148.041188,-76915.987999
383.054572,-7994.224174,-1776.494261,-77682.083497
383.057129,-1628.453072,296.082377,-75383.797003
383.059686,-2664.741391,-3256.906145,-79827.150892
383.062243,-3701.029710,0.000000,-77069.207099
383.064799,-5773.606348,1332.370696,-78754.617194
383.067356,-3849.070898,-592.164754,-78601.398095
383.069912,-3701.029710,148.041188,-77682.083497
383.072468,592.164754,-296.082377,-78601.398095
383.075025,-1924.535449,-1628.453072,-79827.150892
383.077581,1332.370696,-740.205942,-77682.083497
383.080138,-8882.471304,2220.617826,-78141.740796
383.082694,-4885.359217,1036.288319,-77835.302597
383.085251,5773.606348,-2516.700203,-79367.493593
383.087807,13175.665768,-2664.741391,-79673.931792
383.090363,12287.418637,1924.535449,-77528.864398
383.092920,-148.041188,2664.741391,-77375.645298
383.095476,-4293.194464,740.205942,-77835.302597
383.098033,1184.329507,-3256.906145,-79520.712692
383.100589,5033.400406,-2960.823768,-77988.521696
383.103146,9622.677246,2960.823768,-77222.426198
383.105702,17024.736666,1036.288319,-78448.178995
383.108258,6513.812290,-2516.700203,-78601.398095
383.110815,-9622.677246,-888.247130,-75996.673402
383.113371,-1184.329507,-1776.494261,-80286.808190
383.115928,8586.388927,-592.164754,-78601.398095
383.118484,9326.594869,888.247130,-76762.768900
383.121041,1776.494261,-1480.411884,-77835.302597
383.123597,1480.411884,-2812.782580,-77682.083497
383.126153,2516.700203,592.164754,-75077.358804
383.128710,6217.729913,296.082377,-77069.207099
383.131266,6661.853478,-1628.453072,-75843.454302
383.133823,4737.318029,-888.247130,-77528.864398
383.136379,9622.677246,-1036.288319,-76456.330700
383.138936,3256.906145,-740.205942,-78141.740796
383.141492,4589.276840,2664.741391,-77222.426198
383.144048,3997.112087,296.082377,-77069.207099
383.146605,1480.411884,-4293.194464,-79214.274493
383.149161,-1628.453072,-740.205942,-77528.864398
383.151718,8142.265362,296.082377,-78294.959896
383.154274,7254.018232,1776.494261,-79827.150892
383.156831,1628.453072,-444.123565,-78907.836294
383.159387,-8734.430116,-2960.823768,-78907.836294
383.161943,-16432.571912,-740.205942,-78448.178995
383.164500,-2812.782580,2072.576638,-77528.864398
383.167056,0.000000,-2812.782580,-80593.246390
383.169612,8882.471304,1184.329507,-77222.426198
383.172169,296.082377,-2368.659014,-80440.027290
383.174725,-21021.848753,1628.453072,-76762.768900
383.177281,-11103.089130,1628.453072,-77682.083497
383.179837,0.000000,-4293.194464,-80286.808190
383.182394,3404.947333,-2368.659014,-78141.740796
383.184950,-740.205942,1628.453072,-77835.302597
383.187506,-2960.823768,-888.247130,-79367.493593
383.190062,-3552.988522,-444.123565,-78141.740796
383.192619,-5033.400406,-148.041188,-77069.207099
383.195175,-3849.070898,-1332.370696,-77682.083497
383.197731,-2664.741391,148.041188,-78448.178995
383.200288,-444.123565,148.041188,-76149.892501
383.202844,-4293.194464,148.041188,-77988.521696
383.205400,-4589.276840,-148.041188,-76762.768900
383.207956,1776.494261,-740.205942,-78448.178995
383.210513,-4589.276840,-2664.741391,-80286.808190
383.213069,-6809.894666,740.205942,-77375.645298
383.215625,444.123565,-444.123565,-80286.808190
383.218181,1036.288319,-2812.782580,-80593.246390
383.220738,148.041188,-148.041188,-76915.987999
383.223294,-6957.935855,740.205942,-78601.398095
383.225850,-8290.306550,2960.823768,-77835.302597
383.228406,10362.883188,-2072.576638,-79214.274493
383.230963,6217.729913,-6217.729913,-80899.684589
383.233519,6513.812290,1184.329507,-76762.768900
383.236075,2960.823768,2812.782580,-75537.016103
383.238632,-4589.276840,296.082377,-80133.589091
383.241188,1480.411884,-2664.741391,-76915.987999
383.243744,444.123565,-2368.659014,-77988.521696
383.246300,17172.777854,148.041188,-77682.083497
383.248857,15248.242405,-148.041188,-77528.864398
383.251413,3256.906145,-296.082377,-77988.521696
383.253969,-3997.112087,-148.041188,-76915.987999
383.256525,-1776.494261,-444.123565,-79367.493593
383.259082,5329.482782,-592.164754,-78754.617194
383.261638,10955.047942,592.164754,-76762.768900
383.264194,3849.070898,-3404.947333,-79061.055394
383.266701,3108.864956,-1628.453072,-78294.959896
383.269209,5625.565159,1184.329507,-77682.083497
383.271716,3997.112087,296.082377,-79214.274493
383.274223,3404.947333,0.000000,-75077.358804
383.276730,6365.771101,-2812.782580,-79673.931792
383.279237,7994.224174,-2664.741391,-79980.369991
383.281745,8438.347739,-1036.288319,-78448.178995
383.284252,3849.070898,2220.617826,-76915.987999
383.286759,-4145.153275,-888.247130,-79061.055394
383.289266,4441.235652,-2072.576638,-77069.207099
383.291774,3849.070898,-1924.535449,-79214.274493
383.294281,7698.141797,1036.288319,-77375.645298
383.296788,6365.771101,2516.700203,-79214.274493
383.299295,2072.576638,-2072.576638,-79061.055394
383.301802,-12287.418637,-3256.906145,-79061.055394
383.304310,-14656.077652,3256.906145,-75996.673402
383.306817,7698.141797,0.000000,-77375.645298
383.309324,11103.089130,-6365.771101,-80746.465489
383.311831,-3701.029710,-1480.411884,-76303.111601
383.314338,-12287.418637,2960.823768,-77069.207099
383.316846,-9918.759623,-1332.370696,-79673.931792
383.319353,-11251.130318,-444.123565,-76762.768900
383.321860,1776.494261,592.164754,-77375.645298
383.324367,8882.471304,-1184.329507,-79673.931792
383.326874,-2516.700203,-2812.782580,-77375.645298
383.329382,-12879.583391,1776.494261,-75996.673402
383.331889,2960.823768,888.247130,-79061.055394
383.334396,-6365.771101,-3108.864956,-80593.246390
383.336903,-6809.894666,1036.288319,-75383.797003
383.339410,-2664.741391,-740.205942,-78907.836294
383.341918,2516.700203,-888.247130,-79367.493593
383.344425,-7846.182985,-2220.617826,-78448.178995
383.346932,-14804.118840,1332.370696,-76915.987999
383.349439,2220.617826,1480.411884,-77988.521696
383.351946,1036.288319,-3108.864956,-80133.589091
383.354454,-8438.347739,1184.329507,-77222.426198
383.356961,4885.359217,-2960.823768,-78754.617194
383.359468,-1776.494261,-3404.947333,-80440.027290
383.361975,-6217.729913,3849.070898,-75077.358804
383.364483,-7846.182985,-296.082377,-79214.274493
383.367001,13471.748144,-4441.235652,-79367.493593
383.369519,11695.253884,-1332.370696,-78754.617194
383.372037,15248.242405,148.041188,-77682.083497
383.374556,2812.782580,2516.700203,-76456.330700
383.377074,-8882.471304,740.205942,-79827.150892
383.379592,1480.411884,-1776.494261,-77682.083497
383.382111,3552.988522,-2220.617826,-79061.055394
383.384629,16580.613101,592.164754,-77069.207099
383.387147,13915.871710,-296.082377,-78907.836294
383.389666,2368.659014,-2368.659014,-78601.398095
383.392184,-4145.153275,-296.082377,-78141.740796
383.394702,4441.235652,-148.041188,-78294.959896
383.397221,4145.153275,592.164754,-78907.836294
383.399739,4589.276840,0.000000,-77222.426198
383.402257,10510.924376,-1332.370696,-78907.836294
383.404776,7994.224174,-3256.906145,-80133.589091
383.407294,1332.370696,296.082377,-76149.892501
383.409812,3108.864956,1332.370696,-77682.083497
383.412330,5773.606348,-2072.576638,-78141.740796
383.414849,10510.924376,-2664.741391,-78141.740796
383.417367,4145.153275,-740.205942,-78141.740796
383.419885,9030.512492,-1184.329507,-77375.645298
383.422404,-148.041188,-444.123565,-79214.274493
383.424922,1332.370696,-1480.411884,-76915.987999
383.427440,6661.853478,-2368.659014,-77069.207099
383.429959,592.164754,296.082377,-80133.589091
383.432477,13175.665768,-296.082377,-76456.330700
383.434995,-3404.947333,-4145.153275,-80286.808190
383.437514,-18505.148550,-2516.700203,-77682.083497
383.440032,-12287.418637,2812.782580,-76149.892501
383.442550,1628.453072,-592.164754,-80746.465489
383.445069,4293.194464,296.082377,-77528.864398
383.447587,5329.482782,1332.370696,-80746.465489
383.450105,1628.453072,-2220.617826,-78907.836294
383.452624,-24278.754898,2516.700203,-76609.549800
383.455142,-19245.354492,2812.782580,-78754.617194
383.457660,5329.482782,-1628.453072,-80440.027290
383.460178,3701.029710,-2220.617826,-79980.369991
383.462697,-2812.782580,1628.453072,-77375.645298
383.465215,148.041188,-2220.617826,-78907.836294
383.467743,-5625.565159,-3108.864956,-80286.808190
383.470271,-8142.265362,0.000000,-75690.235202
383.472799,-4145.153275,-888.247130,-78754.617194
383.475327,592.164754,-1628.453072,-81512.560987
383.477855,-2812.782580,-2220.617826,-76915.987999
383.480382,-4293.194464,740.205942,-75077.358804
383.482910,-7846.182985,-148.041188,-80286.808190
383.485438,2220.617826,1036.288319,-75996.673402
383.487966,-8734.430116,1628.453072,-75843.454302
383.490494,-5921.647536,148.041188,-76915.987999
383.493022,7550.100608,-3552.988522,-79061.055394
383.495550,-2812.782580,-2368.659014,-77988.521696
383.498078,-8290.306550,2368.659014,-76762.768900
383.500606,-5625.565159,1184.329507,-77222.426198
383.503133,9918.759623,-4145.153275,-79673.931792
383.505661,11695.253884,-1628.453072,-77222.426198
383.508189,12879.583391,444.123565,-77069.207099
383.510717,1776.494261,296.082377,-77682.083497
383.513245,-4885.359217,0.000000,-76303.111601
383.515773,0.000000,-1776.494261,-78601.398095
383.518301,7846.182985,-296.082377,-78141.740796
383.520829,13323.706956,-296.082377,-78907.836294
383.523357,11103.089130,1776.494261,-77222.426198
383.525884,1776.494261,-3108.864956,-78754.617194
383.528412,740.205942,148.041188,-76149.892501
383.530940,1332.370696,-1924.535449,-79520.712692
383.533468,7105.977043,148.041188,-77682.083497
383.535996,3404.947333,444.123565,-78448.178995
383.538524,12435.459826,-2072.576638,-78294.959896
383.541052,12583.501014,-4589.276840,-81052.903688
383.543580,7105.977043,-740.205942,-77835.302597
383.546108,444.123565,296.082377,-76609.549800
383.548642,3849.070898,-1776.494261,-78448.178995
383.551176,12879.583391,-2664.741391,-78294.959896
383.553710,1332.370696,148.041188,-77835.302597
383.556244,6661.853478,888.247130,-76915.987999
383.558778,740.205942,-1184.329507,-79520.712692
383.561312,-3256.906145,2220.617826,-78141.740796
383.563847,3552.988522,-1332.370696,-78448.178995
383.566381,12287.418637,1924.535449,-78141.740796
383.568915,-148.041188,-592.164754,-80899.684589
383.571449,-2812.782580,-592.164754,-75690.235202
383.573983,-19837.519246,-1480.411884,-78294.959896
383.576517,-9622.677246,4145.153275,-75537.016103
383.579051,8586.388927,-1776.494261,-79520.712692
383.581585,4293.194464,-2664.741391,-77988.521696
383.584120,444.123565,-296.082377,-77682.083497
383.586654,-3701.029710,-1480.411884,-76762.768900
383.589188,-8290.306550,-1332.370696,-79061.055394
383.591722,-10510.924376,-1776.494261,-77835.302597
383.594256,1924.535449,-740.205942,-78141.740796
383.596790,10658.965565,-1332.370696,-78601.398095
383.599324,888.247130,1332.370696,-79214.274493
383.601859,-11103.089130,-1184.329507,-78294.959896
383.604393,-740.205942,-296.082377,-78294.959896
383.606927,2516.700203,-1628.453072,-80286.808190
383.609461,-3849.070898,-2220.617826,-79980.369991
383.611995,-10510.924376,296.082377,-75843.454302
383.614529,-1332.370696,-888.247130,-80593.246390
383.617063,-2516.700203,-4293.194464,-79214.274493
383.619597,-11991.336260,2368.659014,-74617.701505
383.622132,2516.700203,888.247130,-79520.712692
383.624666,-3256.906145,-2960.823768,-79214.274493
383.627200,-4885.359217,740.205942,-75996.673402
383.629734,1184.329507,-2812.782580,-78601.398095
383.632268,888.247130,-888.247130,-78294.959896
383.634802,-10510.924376,1776.494261,-77528.864398
383.637336,13027.624579,-740.205942,-75690.235202
383.639870,15100.201217,-5181.441594,-79520.712692
383.642405,9030.512492,2664.741391,-77222.426198
383.644939,2812.782580,2516.700203,-76303.111601
383.647473,-3849.070898,-1480.411884,-79827.150892
383.650013,4293.194464,-1628.453072,-77222.426198
383.652553,4293.194464,296.082377,-78448.178995
383.655094,9474.636058,444.123565,-78448.178995
383.657634,14211.954086,-296.082377,-77069.207099
383.660174,888.247130,-2368.659014,-81206.122788
383.662714,-6513.812290,1628.453072,-76609.549800
383.665255,2960.823768,-2516.700203,-79520.712692
383.667795,8142.265362,-296.082377,-77835.302597
383.670335,3404.947333,1036.288319,-77069.207099
383.672876,2812.782580,-2812.782580,-78907.836294
383.675416,10066.800811,-2072.576638,-77835.302597
383.677956,8438.347739,296.082377,-77682.083497
383.680496,4737.318029,740.205942,-77375.645298
383.683037,6069.688724,-1776.494261,-76915.987999
383.685577,7105.977043,-1924.535449,-79214.274493
383.688117,7254.018232,-1480.411884,-78448.178995
383.690657,1480.411884,0.000000,-78601.398095
383.693198,4145.153275,1036.288319,-78448.178995
383.695738,4145.153275,-1628.453072,-77069.207099
383.698278,1480.411884,148.041188,-77375.645298
383.700819,6661.853478,592.164754,-78141.740796
383.703359,-2960.823768,-4737.318029,-80133.589091
383.705899,-17172.777854,-2072.576638,-77835.302597
383.708439,-13619.789333,2368.659014,-76609.549800
383.710980,5921.647536,-1480.411884,-79061.055394
383.713520,6661.853478,-3997.112087,-77069.207099
383.716060,2072.576638,1184.329507,-75843.454302
383.718600,-6365.771101,1924.535449,-78907.836294
383.721141,-10510.924376,592.164754,-76149.892501
383.723681,-14359.995275,-2664.741391,-79520.712692
383.726221,-4293.194464,-296.082377,-77988.521696
383.728761,7698.141797,-1036.288319,-78294.959896
383.731302,-2960.823768,-1184.329507,-79061.055394
383.733842,-6661.853478,444.123565,-75996.673402
383.736382,-5033.400406,-1628.453072,-80593.246390
383.738923,-4885.359217,-2368.659014,-79061.055394
383.741463,-4293.194464,-1036.288319,-76609.549800
383.744003,-5477.523971,-888.247130,-78754.617194
383.746543,-3256.906145,-740.205942,-77528.864398
383.749084,-2664.741391,-1776.494261,-78754.617194
383.751584,-3997.112087,148.041188,-76609.549800
383.754086,-5921.647536,1184.329507,-77528.864398
383.756587,-1776.494261,-148.041188,-76456.330700
383.759089,2960.823768,-1776.494261,-77375.645298
383.761591,-1628.453072,-2368.659014,-77222.426198
383.764092,-13767.830521,1776.494261,-76303.111601
383.766594,2220.617826,2368.659014,-77682.083497
383.769096,13323.706956,-6069.688724,-79520.712692
383.771597,14656.077652,296.082377,-76609.549800
383.774099,9770.718434,2220.617826,-79214.274493
383.776600,296.082377,-888.247130,-79520.712692
383.779102,-4589.276840,-740.205942,-77528.864398
383.781604,3997.112087,-148.041188,-79061.055394
383.784105,13767.830521,-1332.370696,-79367.493593
383.786607,9474.636058,1184.329507,-77988.521696
383.789109,11103.089130,296.082377,-76915.987999
383.791610,3108.864956,-2516.700203,-80286.808190
383.794112,-3701.029710,-2220.617826,-79673.931792
383.796613,1036.288319,-444.123565,-77528.864398
383.799115,7994.224174,592.164754,-79827.150892
383.801617,10066.800811,-1184.329507,-78601.398095
383.804118,3849.070898,-2812.782580,-78141.740796
383.806620,6069.688724,444.123565,-78601.398095
383.809122,12139.377449,-740.205942,-79520.712692
383.811623,6661.853478,-1924.535449,-80593.246390
383.814125,5921.647536,888.247130,-76456.330700
383.816626,4589.276840,-1628.453072,-80746.465489
383.819128,7994.224174,-1332.370696,-79214.274493
383.821630,-3997.112087,-1036.288319,-78754.617194
383.824131,4293.194464,-444.123565,-77069.207099
383.826633,6217.729913,-296.082377,-79827.150892
383.829135,10362.883188,-296.082377,-78294.959896
383.831636,-6069.688724,-740.205942,-80286.808190
383.834138,-9622.677246,0.000000,-76303.111601
383.836640,-11695.253884,0.000000,-78141.740796
383.839141,-6365.771101,3404.947333,-76915.987999
383.841643,11251.130318,-444.123565,-77375.645298
383.844144,5033.400406,-5329.482782,-80746.465489
383.846646,-5181.441594,1776.494261,-75690.235202
383.849148,-9474.636058,1036.288319,-77222.426198
383.851663,-10955.047942,-2220.617826,-78754.617194
383.854179,-7698.141797,592.164754,-76762.768900
383.856694,0.000000,-1924.535449,-78294.959896
383.859210,1628.453072,-444.123565,-77222.426198
383.861725,-1036.288319,-148.041188,-77528.864398
383.864241,-5033.400406,-2664.741391,-78601.398095
383.866756,-5921.647536,740.205942,-77375.645298
383.869271,-4293.194464,-1036.288319,-77988.521696
383.871787,-4293.194464,-444.123565,-76915.987999
383.874302,-11695.253884,0.000000,-77069.207099
383.876818,444.123565,-148.041188,-78754.617194
383.879333,3552.988522,-1628.453072,-80133.589091
383.881849,-2960.823768,740.205942,-76149.892501
383.884364,-10066.800811,2368.659014,-76456.330700
383.886880,5329.482782,-1776.494261,-79367.493593
383.889395,-2812.782580,-2072.576638,-76762.768900
383.891911,-13175.665768,296.082377,-76149.892501
383.894426,-1184.329507,740.205942,-76762.768900
383.896942,17912.983796,-3404.947333,-78448.178995
383.899457,11251.130318,-444.123565,-76149.892501
383.901973,5921.647536,2516.700203,-77682.083497
383.904488,-1036.288319,-888.247130,-79214.274493
383.907004,-2812.782580,-1776.494261,-78601.398095
383.909519,1332.370696,-1480.411884,-77222.426198
383.912035,14508.036463,296.082377,-77682.083497
383.914550,12731.542202,-148.041188,-78907.836294
383.917066,8142.265362,592.164754,-76762.768900
383.919581,148.041188,-2368.659014,-78754.617194
383.922097,-4293.194464,296.082377,-78294.959896
383.924612,-3108.864956,1628.453072,-77682.083497
383.927128,9622.677246,1924.535449,-77375.645298
383.929643,11103.089130,-1628.453072,-79980.369991
383.932158,-2072.576638,-2220.617826,-78294.959896
383.934674,7254.018232,-1184.329507,-75843.454302
383.937189,11695.253884,-2220.617826,-81052.903688
383.939705,592.164754,-148.041188,-76149.892501
383.942220,7105.977043,1924.535449,-76149.892501
383.944736,6365.771101,-2072.576638,-79520.712692
383.947251,4441.235652,-3108.864956,-77835.302597
383.949767,-4737.318029,2812.782580,-75537.016103
383.952294,7698.141797,-1776.494261,-76456.330700
383.954821,5329.482782,1036.288319,-77835.302597
383.957349,11991.336260,1924.535449,-77069.207099
383.959876,-6217.729913,-3552.988522,-79827.150892
383.962403,-13027.624579,-2220.617826,-77222.426198
383.964931,-14804.118840,2220.617826,-77682.083497
383.967458,8290.306550,1036.288319,-78601.398095
383.969985,6069.688724,-3997.112087,-77682.083497
383.972512,3701.029710,-888.247130,-79061.055394
383.975040,-7994.224174,740.205942,-79061.055394
383.977567,-19393.395680,592.164754,-77682.083497
383.980094,-11251.130318,-444.123565,-78141.740796
383.982622,1480.411884,-296.082377,-77835.302597
383.985149,4293.194464,-2220.617826,-77988.521696
383.987676,1036.288319,888.247130,-76149.892501
383.990204,-5773.606348,-740.205942,-77375.645298
383.992731,-8586.388927,-2664.741391,-80286.808190
383.995258,-3404.947333,-1184.329507,-76303.111601
383.997785,-2664.741391,-2220.617826,-78448.178995
384.000313,-7550.100608,-148.041188,-78754.617194
384.002840,-5329.482782,-296.082377,-76762.768900
384.005367,740.205942,-2960.823768,-78601.398095
384.007895,-8586.388927,-1036.288319,-78141.740796
384.010422,-888.247130,2812.782580,-77988.521696
384.012949,5921.647536,-1332.370696,-77222.426198
384.015476,-6513.812290,-1924.535449,-78754.617194
384.018004,-9770.718434,2368.659014,-76456.330700
384.020531,-1480.411884,0.000000,-79520.712692
384.023058,7550.100608,-3849.070898,-78141.740796
384.025586,15396.283594,148.041188,-75843.454302
384.028113,15840.407159,-1332.370696,-79367.493593
384.030640,1776.494261,740.205942,-77682.083497
384.033167,-10658.965565,444.123565,-77528.864398
384.035695,2664.741391,-1628.453072,-78294.959896
384.038222,11695.253884,-2072.576638,-79214.274493
384.040749,14952.160028,1776.494261,-76456.330700
384.043277,9326.594869,296.082377,-77528.864398
384.045804,2516.700203,-3256.906145,-78907.836294
384.048331,-740.205942,-148.041188,-76915.987999
384.050858,2664.741391,-444.123565,-78448.178995
384.053395,4145.153275,148.041188,-77835.302597
384.055931,6217.729913,-592.164754,-77835.302597
384.058467,9030.512492,-1776.494261,-78601.398095
384.061003,5921.647536,-3256.906145,-80440.027290
384.063539,5329.482782,-296.082377,-77375.645298
384.066075,5921.647536,148.041188,-79367.493593
384.068611,5033.400406,-592.164754,-78141.740796
384.071147,7994.224174,-148.041188,-77222.426198
384.073684,-2368.659014,-2960.823768,-79520.712692
384.076220,-740.205942,0.000000,-75843.454302
384.078756,8290.306550,444.123565,-77069.207099
384.081292,12583.501014,740.205942,-77835.302597
384.083828,1924.535449,740.205942,-76456.330700
384.086364,-4885.359217,-4441.235652,-77528.864398
384.088900,-15692.365970,-3849.070898,-77682.083497
384.091436,-14508.036463,2368.659014,-74924.139704
384.093972,2368.659014,1332.370696,-80286.808190
384.096509,13027.624579,-3108.864956,-77069.207099
384.099045,6513.812290,-888.247130,-80286.808190
384.101581,-10510.924376,444.123565,-79061.055394
384.104117,-17320.819043,1776.494261,-76303.111601
384.106653,-5033.400406,-2220.617826,-79827.150892
384.109189,1628.453072,-2072.576638,-78448.178995
384.111725,5329.482782,-592.164754,-76762.768900
384.114261,-2220.617826,-1184.329507,-79673.931792
384.116798,-11399.171507,2220.617826,-77069.207099
384.119334,-3404.947333,-1184.329507,-77835.302597
384.121870,-5329.482782,-2072.576638,-80593.246390
384.124406,-2368.659014,592.164754,-78141.740796
384.126942,-6217.729913,-444.123565,-78141.740796
384.129478,-7550.100608,-888.247130,-77375.645298
384.132014,444.123565,148.041188,-78141.740796
384.134550,-3404.947333,-740.205942,-78448.178995
384.137086,1184.329507,-296.082377,-75690.235202
384.139623,-740.205942,-2220.617826,-78907.836294
384.142159,-5625.565159,2220.617826,-77069.207099
384.144695,-7402.059420,-148.041188,-78601.398095
384.147231,10362.883188,-1036.288319,-78141.740796
384.149767,10214.842000,-2368.659014,-79827.150892
384.152303,16284.530724,3108.864956,-75383.797003
384.154847,3108.864956,444.123565,-79367.493593
384.157390,-5477.523971,444.123565,-76609.549800
384.159934,-6957.935855,-5329.482782,-78754.617194
384.162477,3404.947333,-444.123565,-77222.426198
384.165021,20281.642811,-592.164754,-78141.740796
384.167564,12435.459826,0.000000,-77528.864398
384.170108,-1036.288319,-148.041188,-76915.987999
384.172652,-3256.906145,-148.041188,-77069.207099
384.175195,-1332.370696,-2072.576638,-79061.055394
384.177739,7994.224174,444.123565,-75077.358804
384.180282,9474.636058,444.123565,-78294.959896
384.182826,2812.782580,-1924.535449,-77682.083497
384.185369,8734.430116,-888.247130,-76303.111601
384.187913,6365.771101,-2664.741391,-81206.122788
384.190456,6809.894666,-148.041188,-76456.330700
384.193000,3404.947333,0.000000,-76149.892501
384.195543,5329.482782,-444.123565,-77988.521696
384.198087,3108.864956,-4145.153275,-77375.645298
384.200631,-4293.194464,2220.617826,-77682.083497
384.203174,10510.924376,-740.205942,-76915.987999
384.205718,6957.935855,444.123565,-77375.645298
384.208261,7254.018232,592.164754,-77069.207099
384.210805,-6957.935855,-4885.359217,-78294.959896
384.213348,-21614.013506,-2072.576638,-77988.521696
384.215892,-13323.706956,6069.688724,-75690.235202
384.218435,13619.789333,-2072.576638,-79673.931792
384.220979,1776.494261,-3997.112087,-77682.083497
384.223522,4589.276840,592.164754,-75230.577904
384.226066,-8438.347739,-1480.411884,-78754.617194
384.228609,-18061.024985,3997.112087,-76456.330700
384.231153,-4885.359217,-1776.494261,-78754.617194
384.233697,-1036.288319,-740.205942,-79673.931792
384.236240,2812.782580,1184.329507,-76456.330700
384.238784,-4145.153275,1776.494261,-77528.864398
384.241327,-5329.482782,444.123565,-78141.740796
384.243871,-1036.288319,148.041188,-77988.521696
384.246414,-12731.542202,-1776.494261,-79367.493593
384.248958,-4145.153275,296.082377,-76303.111601
384.251501,-1924.535449,-2368.659014,-79827.150892
384.254045,-10214.842000,740.205942,-77222.426198
384.256554,-1480.411884,-444.123565,-77528.864398
384.259064,-148.041188,-1036.288319,-79367.493593
384.261573,4589.276840,-1924.535449,-77988.521696
384.264082,-8290.306550,-888.247130,-75690.235202
384.266592,-9918.759623,2812.782580,-76762.768900
384.269101,2664.741391,-740.205942,-79673.931792
384.271610,3404.947333,-2220.617826,-76609.549800
384.274120,12435.459826,592.164754,-76762.768900
384.276629,21021.848753,-1036.288319,-76762.768900
384.279138,148.041188,1332.370696,-77375.645298
384.281648,-12139.377449,1332.370696,-75690.235202
384.284157,592.164754,-3404.947333,-78601.398095
384.286666,14063.912898,-1776.494261,-79367.493593
384.289176,17320.819043,3256.906145,-76609.549800
384.291685,11103.089130,-1332.370696,-77682.083497
384.294194,148.041188,-1184.329507,-78294.959896
384.296704,740.205942,-2368.659014,-78754.617194
384.299213,0.000000,592.164754,-77375.645298
384.301722,5921.647536,1480.411884,-76762.768900
384.304232,7254.018232,-1332.370696,-78907.836294
384.306741,12287.418637,-148.041188,-77069.207099
384.309250,4145.153275,-1924.535449,-77375.645298
384.311760,7550.100608,-148.041188,-76303.111601
384.314269,3701.029710,1776.494261,-77988.521696
384.316778,6661.853478,-296.082377,-76456.330700
384.319288,6365.771101,-1332.370696,-77682.083497
384.321797,-1924.535449,-1184.329507,-77682.083497
384.324306,8290.306550,-740.205942,-74004.825107
384.326816,4441.235652,1036.288319,-79214.274493
384.329325,10510.924376,1628.453072,-76915.987999
384.331834,-4885.359217,-4737.318029,-80899.684589
384.334344,-12731.542202,-2072.576638,-78754.617194
384.336853,-17912.983796,1036.288319,-80133.589091
384.339362,2960.823768,4589.276840,-78601.398095
384.341872,6661.853478,-3552.988522,-79520.712692
384.344381,6809.894666,-592.164754,-79520.712692
384.346890,-3997.112087,1924.535449,-80593.246390
384.349400,-18357.107362,444.123565,-78601.398095
384.351909,-13323.706956,888.247130,-77682.083497
384.354418,1184.329507,-1628.453072,-80593.246390
384.356942,2960.823768,-1480.411884,-78294.959896
384.359465,888.247130,0.000000,-77835.302597
384.361988,-2220.617826,-296.082377,-79214.274493
384.364511,-5329.482782,-1184.329507,-78907.836294
384.367034,-6957.935855,-1628.453072,-78448.178995
384.369557,-3997.112087,-1776.494261,-78294.959896
384.372080,-1924.535449,-1924.535449,-78601.398095
384.374603,-8142.265362,444.123565,-77835.302597
384.377126,148.041188,148.041188,-76609.549800
384.379649,-4293.194464,-1924.535449,-79980.369991
384.382172,2220.617826,-296.082377,-75996.673402
384.384695,-2960.823768,-1924.535449,-77988.521696
384.387219,-7402.059420,1924.535449,-76915.987999
384.389742,-6513.812290,740.205942,-79673.931792
384.392265,18357.107362,-1184.329507,-75537.016103
384.394788,14211.954086,-3701.029710,-81052.903688
384.397311,13915.871710,3404.947333,-74617.701505
384.399834,-4293.194464,1036.288319,-78601.398095
384.402357,-3701.029710,-148.041188,-77835.302597
384.404880,-3256.906145,-3701.029710,-78601.398095
384.407403,12287.418637,1036.288319,-77222.426198
384.409926,14211.954086,-740.205942,-79673.931792
384.412449,12879.583391,-148.041188,-76149.892501
384.414972,-4441.235652,-592.164754,-77682.083497
384.417495,-4293.194464,-1332.370696,-78907.836294
384.420019,7550.100608,-592.164754,-77069.207099
384.422542,4885.359217,-1480.411884,-78601.398095
384.425065,6513.812290,148.041188,-76303.111601
384.427588,11695.253884,-2368.659014,-78601.398095
384.430111,4737.318029,-3404.947333,-79214.274493
384.432634,6069.688724,2812.782580,-74004.825107
384.435157,6365.771101,-592.164754,-80746.465489
384.437680,5181.441594,-148.041188,-79367.493593
384.440203,3701.029710,-1776.494261,-75996.673402
384.442726,-4737.318029,-740.205942,-79827.150892
384.445249,12139.377449,-592.164754,-76762.768900
384.447772,12583.501014,1776.494261,-77682.083497
384.450295,-7105.977043,1776.494261,-78754.617194
384.452819,1184.329507,-3552.988522,-75843.454302
384.455342,-18949.272115,-3997.112087,-80746.465489
384.457876,-10362.883188,4145.153275,-76915.987999
384.460411,2072.576638,1628.453072,-77835.302597
384.462945,7846.182985,-4145.153275,-80899.684589
384.465480,3256.906145,-888.247130,-77528.864398
384.468015,-9918.759623,888.247130,-76456.330700
384.470549,-18505.148550,148.041188,-79980.369991
384.473084,740.205942,-1184.329507,-78141.740796
384.475618,-2960.823768,-1776.494261,-80746.465489
384.478153,-3256.906145,148.041188,-75843.454302
384.480688,-3701.029710,592.164754,-76762.768900
384.483222,-1776.494261,-1184.329507,-79214.274493
384.485757,-6365.771101,148.041188,-76609.549800
384.488291,-11843.295072,-592.164754,-77835.302597
384.490826,-1776.494261,888.247130,-78754.617194
384.493361,-4737.318029,-1480.411884,-77069.207099
384.495895,-5329.482782,1480.411884,-76762.768900
384.498430,1332.370696,-1036.288319,-79061.055394
384.500964,-1036.288319,-4441.235652,-78141.740796
384.503499,-8586.388927,0.000000,-77222.426198
384.506034,-8586.388927,1628.453072,-76149.892501
384.508568,1036.288319,148.041188,-79673.931792
384.511103,9326.594869,-1924.535449,-77222.426198
384.513637,7254.018232,-740.205942,-77375.645298
384.516172,20577.725188,-592.164754,-77682.083497
384.518707,3108.864956,-296.082377,-78448.178995
384.521241,-10658.965565,3997.112087,-75537.016103
384.523776,-1036.288319,-6069.688724,-78448.178995
384.526310,13471.748144,-1332.370696,-77375.645298
384.528845,13471.748144,-1332.370696,-77682.083497
384.531379,14211.954086,2368.659014,-74004.825107
384.533914,1480.411884,-2072.576638,-77528.864398
384.536449,888.247130,-2664.741391,-78907.836294
384.538983,1628.453072,-888.247130,-77222.426198
384.541518,10807.006753,296.082377,-77069.207099
384.544052,7994.224174,-1184.329507,-79061.055394
384.546587,13323.706956,-2072.576638,-77835.302597
384.549122,7698.141797,-148.041188,-78294.959896
384.551656,5181.441594,-148.041188,-78141.740796
384.554191,6661.853478,-296.082377,-77069.207099
384.556725,740.205942,-444.123565,-79980.369991
384.559269,3701.029710,-3701.029710,-76915.987999
384.561812,-148.041188,-2072.576638,-79673.931792
384.564355,8438.347739,444.123565,-78448.178995
384.566899,12435.459826,1480.411884,-77222.426198
384.569442,-4589.276840,1036.288319,-79673.931792
384.571985,-16432.571912,-6069.688724,-78907.836294
384.574529,-15988.448347,444.123565,-75690.235202
384.577072,-740.205942,4145.153275,-80899.684589
384.579615,9326.594869,-1924.535449,-76762.768900
384.582159,-1924.535449,-1776.494261,-78294.959896
384.584702,2664.741391,1184.329507,-76762.768900
384.587245,-10066.800811,-1924.535449,-78141.740796
384.589789,-20873.807564,-148.041188,-76456.330700
384.592332,-592.164754,-1332.370696,-79367.493593
384.594876,8734.430116,-2812.782580,-79367.493593
384.597419,-7550.100608,-1184.329507,-77528.864398
384.599962,-5329.482782,1776.494261,-75230.577904
384.602506,-1332.370696,-1332.370696,-81206.122788
384.605049,-14211.954086,0.000000,-76915.987999
384.607592,-4885.359217,0.000000,-76149.892501
384.610136,-148.041188,-3404.947333,-80593.246390
384.612679,-10066.800811,888.247130,-76915.987999
384.615222,-1776.494261,3256.906145,-77222.426198
384.617766,3701.029710,-3404.947333,-79673.931792
384.620309,148.041188,-740.205942,-77375.645298
384.622852,-10955.047942,2516.700203,-76456.330700
384.625396,-3404.947333,-148.041188,-76915.987999
384.627939,6365.771101,-740.205942,-79520.712692
384.630482,9622.677246,-3701.029710,-77528.864398
384.633026,15544.324782,-740.205942,-77375.645298
384.635569,11991.336260,0.000000,-79214.274493
384.638112,444.123565,2220.617826,-76303.111601
384.640656,-7105.977043,-3849.070898,-77988.521696
384.643199,5181.441594,-1776.494261,-77682.083497
384.645742,13027.624579,-1924.535449,-78907.836294
384.648286,15988.448347,3108.864956,-75690.235202
384.650829,7254.018232,-592.164754,-78294.959896
384.653372,-4441.235652,-444.123565,-79061.055394
384.655916,-2220.617826,-148.041188,-77835.302597
384.658459,6069.688724,-2664.741391,-79673.931792
384.661010,7105.977043,0.000000,-78294.959896
384.663561,9770.718434,1776.494261,-75537.016103
384.666112,6809.894666,-2664.741391,-79061.055394
384.668662,4441.235652,-1184.329507,-77528.864398
384.671213,8438.347739,2220.617826,-76915.987999
384.673764,-296.082377,-1480.411884,-79520.712692
384.676315,3701.029710,-592.164754,-76456.330700
384.678866,3701.029710,-2664.741391,-80440.027290
384.681417,8586.388927,-592.164754,-77222.426198
384.683968,9326.594869,3108.864956,-75077.358804
384.686519,-2516.700203,2220.617826,-80440.027290
384.689069,-6365.771101,-2516.700203,-77375.645298
384.691620,-15988.448347,-2368.659014,-77528.864398
384.694171,-14211.954086,2960.823768,-77988.521696
384.696722,10510.924376,-148.041188,-77222.426198
384.699273,3552.988522,-4441.235652,-79214.274493
384.701824,-444.123565,2072.576638,-75383.797003
384.704375,-11103.089130,296.082377,-77988.521696
384.706926,-14063.912898,-1628.453072,-80133.589091
384.709477,1628.453072,-1924.535449,-78141.740796
384.712027,-4885.359217,-888.247130,-78754.617194
384.714578,-888.247130,2664.741391,-76303.111601
384.717129,14211.954086,-1480.411884,-78754.617194
384.719680,-17172.777854,-1628.453072,-79214.274493
384.722231,-13027.624579,4737.318029,-74464.482406
384.724782,5477.523971,-4885.359217,-81206.122788
384.727333,-7550.100608,-2220.617826,-78294.959896
384.729884,-11251.130318,1036.288319,-74770.920605
384.732434,-1776.494261,1924.535449,-78601.398095
384.734985,7402.059420,-4589.276840,-81665.780087
384.737536,-7402.059420,-592.164754,-75843.454302
384.740087,-12139.377449,3997.112087,-77988.521696
384.742638,4293.194464,-2812.782580,-79520.712692
384.745189,-2664.741391,-740.205942,-77682.083497
384.747740,12287.418637,0.000000,-76149.892501
384.750291,17912.983796,-4145.153275,-81512.560987
384.752841,9474.636058,296.082377,-79214.274493
384.755392,-6957.935855,4293.194464,-75383.797003
384.757943,-2072.576638,-2812.782580,-79673.931792
384.760494,2812.782580,-1776.494261,-80440.027290
384.763012,13619.789333,2368.659014,-76149.892501
384.765531,15396.283594,740.205942,-78294.959896
384.768050,7105.977043,-2812.782580,-78754.617194
384.770569,-9178.553681,0.000000,-77222.426198
384.773088,-592.164754,-148.041188,-77528.864398
384.775607,12139.377449,0.000000,-78141.740796
384.778126,11399.171507,-1332.370696,-80593.246390
384.780645,5921.647536,148.041188,-75383.797003
384.783164,10658.965565,-1332.370696,-80440.027290
384.785683,6957.935855,-3108.864956,-78294.959896
384.788202,592.164754,2960.823768,-75383.797003
384.790721,7105.977043,-1184.329507,-78448.178995
384.793240,5033.400406,-4293.194464,-79673.931792
384.795758,148.041188,-888.247130,-75537.016103
384.798277,6809.894666,-296.082377,-77835.302597
384.800796,6365.771101,148.041188,-77682.083497
384.803315,-3552.988522,-2960.823768,-79061.055394
384.805834,-12583.501014,-296.082377,-76609.549800
384.808353,-15396.283594,-3256.906145,-80899.684589
384.810872,-5033.400406,4589.276840,-78141.740796
384.813391,6957.935855,-1184.329507,-78601.398095
384.815910,7402.059420,-1924.535449,-78601.398095
384.818429,-6809.894666,592.164754,-80440.027290
384.820948,-16284.530724,2812.782580,-75690.235202
384.823467,-11251.130318,-1332.370696,-78907.836294
384.825986,740.205942,-1184.329507,-78448.178995
384.828505,888.247130,444.123565,-78448.178995
384.831024,-2072.576638,0.000000,-75843.454302
384.833543,-2812.782580,-444.123565,-78448.178995
384.836062,-3256.906145,888.247130,-78141.740796
384.838581,-13323.706956,-592.164754,-77069.207099
384.841099,-9326.594869,-1332.370696,-77375.645298
384.843618,2960.823768,3108.864956,-77528.864398
384.846137,2368.659014,-2368.659014,-81052.903688
384.848656,-10658.965565,-740.205942,-75077.358804
384.851175,-1036.288319,3701.029710,-78141.740796
384.853694,4737.318029,-6513.812290,-79061.055394
384.856213,-17764.942608,3701.029710,-74464.482406
384.858732,-1184.329507,3552.988522,-78907.836294
384.861251,21021.848753,-7698.141797,-79520.712692
384.863783,19689.478057,-2664.741391,-77222.426198
384.866314,2516.700203,5329.482782,-75843.454302
384.868846,4885.359217,1036.288319,-78448.178995
384.871377,-2072.576638,-2664.741391,-78141.740796
384.873908,-3404.947333,-1036.288319,-77835.302597
384.876440,14063.912898,592.164754,-78294.959896
384.878971,16580.613101,-888.247130,-79520.712692
384.881503,8586.388927,888.247130,-75077.358804
384.884034,-2664.741391,-1036.288319,-77375.645298
384.886566,-444.123565,-2368.659014,-80899.684589
384.889097,9178.553681,-2664.741391,-78907.836294
384.891629,1332.370696,592.164754,-77222.426198
384.894160,13915.871710,-740.205942,-77528.864398
384.896692,11547.212695,-4293.194464,-80133.589091
384.899223,2516.700203,0.000000,-76609.549800
384.901755,5033.400406,1480.411884,-78141.740796
384.904286,3404.947333,-1184.329507,-78601.398095
384.906818,444.123565,-296.082377,-77835.302597
384.909349,5773.606348,-3849.070898,-77988.521696
384.911881,6513.812290,-296.082377,-78601.398095
384.914412,10362.883188,1776.494261,-77835.302597
384.916944,-5625.565159,148.041188,-78601.398095
384.919475,-16580.613101,-740.205942,-77528.864398
384.922007,-13027.624579,-888.247130,-78448.178995
384.924538,-4885.359217,296.082377,-81512.560987
384.927070,4885.359217,-444.123565,-76303.111601
384.929601,9326.594869,1776.494261,-78294.959896
384.932133,-2960.823768,-592.164754,-80286.808190
384.934664,-18061.024985,2072.576638,-75077.358804
384.937196,-13619.789333,-444.123565,-78141.740796
384.939727,296.082377,-2960.823768,-81512.560987
384.942259,1776.494261,148.041188,-75996.673402
384.944790,-3997.112087,1480.411884,-77835.302597
384.947322,-5625.565159,-148.041188,-78601.398095
384.949853,-11399.171507,-1036.288319,-79980.369991
384.952385,-5921.647536,740.205942,-76915.987999
384.954916,-888.247130,148.041188,-78907.836294
384.957448,-5773.606348,-2368.659014,-79367.493593
384.959979,-1924.535449,0.000000,-75537.016103
384.962511,1924.535449,-888.247130,-79214.274493
384.965053,2072.576638,-1776.494261,-77835.302597
384.967595,-14508.036463,1776.494261,-79214.274493
384.970137,-3701.029710,2516.700203,-77835.302597
384.972679,12435.459826,-4293.194464,-79980.369991
384.975221,8438.347739,-3404.947333,-78601.398095
384.977763,11695.253884,1184.329507,-75537.016103
384.980305,1924.535449,3404.947333,-77682.083497
384.982847,-4441.235652,-740.205942,-79980.369991
384.985389,-3849.070898,-3404.947333,-76149.892501
384.987931,2368.659014,-2368.659014,-80133.589091
384.990473,20577.725188,-2812.782580,-77682.083497
384.993015,10955.047942,-296.082377,-79214.274493
384.995557,3256.906145,2368.659014,-76456.330700
384.998099,-1184.329507,-1480.411884,-79827.150892
385.000641,1628.453072,-3256.906145,-79367.493593
385.003183,10807.006753,3701.029710,-75383.797003
385.005725,12435.459826,-888.247130,-80746.465489
385.008267,13619.789333,-1924.535449,-75996.673402
385.010809,592.164754,0.000000,-78294.959896
385.013351,7105.977043,-592.164754,-78907.836294
385.015893,2960.823768,2072.576638,-78294.959896
385.018435,1628.453072,-444.123565,-78448.178995
385.020977,8882.471304,-3404.947333,-77069.207099
385.023519,6217.729913,-1184.329507,-77988.521696
385.026061,11399.171507,296.082377,-78601.398095
385.028603,-7402.059420,148.041188,-77835.302597
385.031145,-8438.347739,-1628.453072,-77528.864398
385.033688,-19837.519246,-740.205942,-77682.083497
385.036230,-3256.906145,2368.659014,-78141.740796
385.038772,7254.018232,-2960.823768,-78141.740796
385.041314,4589.276840,-1184.329507,-79827.150892
385.043856,-4145.153275,2516.700203,-78141.740796
385.046406,-13471.748144,296.082377,-77375.645298
385.048957,-13323.706956,-1036.288319,-77375.645298
385.051508,-148.041188,-1332.370696,-78448.178995
385.054058,148.041188,-1776.494261,-77988.521696
385.056609,-444.123565,1924.535449,-76762.768900
385.059160,-3256.906145,-444.123565,-76915.987999
385.061710,-9326.594869,296.082377,-78448.178995
385.064261,-6809.894666,1036.288319,-76762.768900
385.066812,-2220.617826,-444.123565,-80899.684589
385.069362,-3701.029710,-296.082377,-78141.740796
385.071913,1036.288319,888.247130,-78754.617194
385.074464,-2960.823768,-3849.070898,-81359.341888
385.077014,-4293.194464,2368.659014,-77988.521696
385.079565,-6365.771101,296.082377,-79520.712692
385.082116,-7994.224174,-296.082377,-77682.083497
385.084666,6365.771101,148.041188,-77069.207099
385.087217,11547.212695,-5625.565159,-80746.465489
385.089768,17172.777854,-2516.700203,-77222.426198
385.092318,1036.288319,3256.906145,-76303.111601
385.094869,-2220.617826,1480.411884,-77835.302597
385.097420,-1036.288319,-3552.988522,-77069.207099
385.099970,3404.947333,444.123565,-79214.274493
385.102521,18061.024985,-1036.288319,-77835.302597
385.105072,13027.624579,148.041188,-77528.864398
385.107622,4145.153275,592.164754,-77835.302597
385.110173,-2812.782580,-296.082377,-77682.083497
385.112724,-4737.318029,-2960.823768,-79520.712692
385.115274,13619.789333,1184.329507,-76762.768900
385.117825,12879.583391,-888.247130,-80286.808190
385.120376,7254.018232,740.205942,-75996.673402
385.122926,5181.441594,-2072.576638,-79520.712692
385.125477,10955.047942,-592.164754,-79061.055394
385.128028,-2664.741391,740.205942,-78141.740796
385.130578,2812.782580,888.247130,-77682.083497
385.133129,10066.800811,-3108.864956,-79367.493593
385.135680,9770.718434,-3256.906145,-80899.684589
385.138230,1628.453072,2516.700203,-77222.426198
385.140781,-5921.647536,-1332.370696,-79827.150892
385.143332,-6069.688724,-2368.659014,-77835.302597
385.145883,-22946.384202,888.247130,-77988.521696
385.148433,-2812.782580,4293.194464,-78294.959896
385.150984,10807.006753,-5033.400406,-80746.465489
385.153535,1184.329507,-1480.411884,-78141.740796
385.156085,-9326.594869,4589.276840,-78448.178995
385.158636,-12879.583391,2368.659014,-76149.892501
385.161187,-7105.977043,-3997.112087,-80899.684589
385.163737,-4293.194464,1776.494261,-75690.235202
385.166288,2812.782580,-2516.700203,-78294.959896
385.168845,-3256.906145,-1628.453072,-77988.521696
385.171402,-4441.235652,2368.659014,-75230.577904
385.173959,-11547.212695,-2812.782580,-79214.274493
385.176516,-6217.729913,1184.329507,-77069.207099
385.179074,-1036.288319,-2072.576638,-77988.521696
385.181631,-2516.700203,-2368.659014,-80133.589091
385.184188,148.041188,0.000000,-76303.111601
385.186745,-2368.659014,-2220.617826,-80286.808190
385.189302,-6069.688724,-592.164754,-77528.864398
385.191859,-8882.471304,1924.535449,-76609.549800
385.194416,-1036.288319,1036.288319,-79827.150892
385.196973,9178.553681,-2368.659014,-77069.207099
385.199531,17912.983796,-3404.947333,-79673.931792
385.202088,12583.501014,-592.164754,-78141.740796
385.204645,-3849.070898,3108.864956,-75996.673402
385.207202,-8142.265362,1332.370696,-78141.740796
385.209759,3552.988522,-2368.659014,-78907.836294
385.212316,7994.224174,-1628.453072,-78448.178995
385.214873,14952.160028,-444.123565,-77222.426198
385.217430,13471.748144,-148.041188,-78448.178995
385.219988,-1480.411884,888.247130,-77835.302597
385.222545,3256.906145,1924.535449,-77222.426198
385.225102,9030.512492,-3108.864956,-80286.808190
385.227659,6957.935855,-148.041188,-77835.302597
385.230216,14656.077652,592.164754,-77069.207099
385.232773,11251.130318,-2516.700203,-79980.369991
385.235330,1924.535449,-2368.659014,-76915.987999
385.237887,4589.276840,2220.617826,-78448.178995
385.240445,1036.288319,-1036.288319,-80133.589091
385.243002,5477.523971,0.000000,-77375.645298
385.245559,5625.565159,-2072.576638,-80286.808190
385.248116,15840.407159,1184.329507,-77682.083497
385.250679,-9030.512492,-1628.453072,-80286.808190
385.253242,-6661.853478,148.041188,-75690.235202
385.255804,-17320.819043,296.082377,-77835.302597
385.258367,-7846.182985,2516.700203,-77835.302597
385.260930,7994.224174,-2664.741391,-77528.864398
385.263493,3108.864956,-4145.153275,-80133.589091
385.266056,2368.659014,-1332.370696,-78294.959896
385.268618,-8734.430116,3701.029710,-76149.892501
385.271181,-15396.283594,-2516.700203,-77988.521696
385.273744,-6661.853478,-2072.576638,-78141.740796
385.276307,8290.306550,296.082377,-79367.493593
385.278870,6809.894666,-1776.494261,-80440.027290
385.281432,-12435.459826,2812.782580,-75843.454302
385.283995,-13471.748144,1332.370696,-79827.150892
385.286558,-3701.029710,-2812.782580,-78448.178995
385.289121,-6365.771101,444.123565,-77988.521696
385.291684,-7698.141797,1184.329507,-76149.892501
385.294246,1332.370696,0.000000,-78907.836294
385.296809,-148.041188,-2664.741391,-80746.465489
385.299372,-7254.018232,-1332.370696,-76456.330700
385.301935,-18357.107362,1776.494261,-76149.892501
385.304498,3701.029710,1332.370696,-78448.178995
385.307061,14063.912898,-5625.565159,-76915.987999
385.309623,11547.212695,-1184.329507,-76149.892501
385.312186,17172.777854,-2220.617826,-78601.398095
385.314749,5329.482782,0.000000,-77069.207099
385.317312,-7550.100608,-296.082377,-77375.645298
385.319875,1480.411884,-740.205942,-75996.673402
385.322437,9474.636058,-1480.411884,-80440.027290
385.325000,20281.642811,-888.247130,-76149.892501
385.327563,10214.842000,-2072.576638,-78448.178995
385.330126,-2812.782580,740.205942,-76609.549800
385.332689,4737.318029,296.082377,-78448.178995
385.335251,3701.029710,-2516.700203,-80286.808190
385.337814,5625.565159,-1480.411884,-76762.768900
385.340377,14211.954086,2812.782580,-75537.016103
385.342940,15840.407159,-3552.988522,-82125.437386
385.345503,296.082377,-1332.370696,-75690.235202
385.348065,1184.329507,3404.947333,-77988.521696
385.350628,3256.906145,-2368.659014,-81972.218286
385.353195,1776.494261,-148.041188,-75383.797003
385.355761,5625.565159,1628.453072,-78448.178995
385.358328,22206.178260,-1332.370696,-79673.931792
385.360894,-3552.988522,-3701.029710,-80746.465489
385.363460,-19097.313304,-2516.700203,-77682.083497
385.366027,-26203.290347,2812.782580,-75843.454302
385.368593,6217.729913,2220.617826,-80899.684589
385.371160,11399.171507,-5773.606348,-79827.150892
385.373726,-888.247130,-740.205942,-77835.302597
385.376293,-10066.800811,3404.947333,-77682.083497
385.378859,-11547.212695,-148.041188,-77528.864398
385.381425,-9622.677246,-1480.411884,-76303.111601
385.383992,-7254.018232,-296.082377,-78754.617194
385.386558,8734.430116,-296.082377,-76762.768900
385.389125,-2664.741391,-2812.782580,-82125.437386
385.391691,-7105.977043,2220.617826,-74617.701505
385.394258,-10807.006753,-1332.370696,-78907.836294
385.396824,-11547.212695,444.123565,-77682.083497
385.399391,3997.112087,-1776.494261,-77528.864398
385.401957,0.000000,-1628.453072,-79673.931792
385.404523,-592.164754,296.082377,-77069.207099
385.407090,-444.123565,-888.247130,-75383.797003
385.409656,-11103.089130,-1480.411884,-81665.780087
385.412223,-5329.482782,3997.112087,-74311.263306
385.414789,5921.647536,-1776.494261,-78907.836294
385.417356,15988.448347,-3256.906145,-78907.836294
385.419922,16432.571912,-2664.741391,-76456.330700
385.422488,4589.276840,2368.659014,-77682.083497
385.425055,-7402.059420,148.041188,-79367.493593
385.427621,-3108.864956,-1480.411884,-74617.701505
385.430188,3849.070898,-888.247130,-79061.055394
385.432754,17172.777854,-592.164754,-75537.016103
385.435321,16876.695478,-888.247130,-78294.959896
385.437887,-296.082377,-888.247130,-77835.302597
385.440453,2220.617826,2960.823768,-75690.235202
385.443020,-444.123565,-2220.617826,-80133.589091
385.445586,9770.718434,-1036.288319,-75537.016103
385.448153,17320.819043,2516.700203,-78448.178995
385.450719,13175.665768,-4145.153275,-79214.274493
385.453286,1184.329507,-2516.700203,-77835.302597
385.455855,740.205942,2664.741391,-77835.302597
385.458425,3701.029710,-1184.329507,-79520.712692
385.460994,5181.441594,-2516.700203,-75230.577904
385.463564,3108.864956,740.205942,-77528.864398
385.466133,25167.002028,-444.123565,-79214.274493
385.468703,-14211.954086,-1628.453072,-80899.684589
385.471272,-7846.182985,2516.700203,-73238.729609
385.473842,-18653.189738,-2516.700203,-80286.808190
385.476412,-1184.329507,592.164754,-79214.274493
385.478981,7105.977043,-148.041188,-75690.235202
385.481551,8290.306550,-2220.617826,-80133.589091
385.484120,-5625.565159,1776.494261,-78448.178995
385.486690,-12731.542202,3108.864956,-75077.358804
385.489259,-15544.324782,-1776.494261,-78601.398095
385.491829,-1184.329507,-2368.659014,-79367.493593
385.494398,4885.359217,-1332.370696,-79980.369991
385.496968,-6957.935855,-444.123565,-80286.808190
385.499537,-4293.194464,1924.535449,-75690.235202
385.502107,-12879.583391,-1776.494261,-80440.027290
385.504677,-15396.283594,1184.329507,-76456.330700
385.507246,-2664.741391,-1480.411884,-76609.549800
385.509816,3552.988522,-1036.288319,-80899.684589
385.512385,-1036.288319,-740.205942,-77528.864398
385.514955,-5329.482782,592.164754,-77682.083497
385.517524,-3997.112087,-1480.411884,-81512.560987
385.520094,-592.164754,2960.823768,-76609.549800
385.522663,8142.265362,-592.164754,-77069.207099
385.525233,6365.771101,-888.247130,-77988.521696
385.527802,25611.125593,-2516.700203,-77069.207099
385.530372,3997.112087,444.123565,-78907.836294
385.532942,-6809.894666,3256.906145,-76609.549800
385.535511,-3108.864956,-3108.864956,-78601.398095
385.538081,5329.482782,1184.329507,-79061.055394
385.540650,14804.118840,-444.123565,-77528.864398
385.543220,10362.883188,-2072.576638,-79061.055394
385.545789,-888.247130,-592.164754,-76915.987999
385.548359,7402.059420,1480.411884,-77528.864398
385.550928,2960.823768,-2812.782580,-78907.836294
385.553498,-2368.659014,148.041188,-76762.768900
385.556067,18357.107362,2220.617826,-77988.521696
385.558640,12731.542202,-4441.235652,-81359.341888
385.561212,740.205942,1036.288319,-75537.016103
385.563784,3108.864956,0.000000,-79367.493593
385.566356,592.164754,-296.082377,-81052.903688
385.568928,7698.141797,-2072.576638,-76303.111601
385.571500,5181.441594,1628.453072,-77988.521696
385.574072,14211.954086,-592.164754,-80899.684589
385.576644,-4737.318029,-3108.864956,-79673.931792
385.579216,-16728.654289,0.000000,-78601.398095
385.581788,-18061.024985,1628.453072,-78141.740796
385.584360,-4145.153275,2664.741391,-79520.712692
385.586933,10510.924376,-2220.617826,-77682.083497
385.589505,9474.636058,-2516.700203,-76609.549800
385.592077,-11547.212695,-296.082377,-79827.150892
385.594649,-13175.665768,4737.318029,-74617.701505
385.597221,-8438.347739,-1776.494261,-79367.493593
385.599793,-6217.729913,-1036.288319,-77988.521696
385.602365,3552.988522,-888.247130,-75843.454302
385.604937,296.082377,-2072.576638,-79061.055394
385.607509,-3997.112087,296.082377,-76149.892501
385.610081,-15396.283594,888.247130,-77528.864398
385.612653,-10362.883188,1184.329507,-77682.083497
385.615226,-2368.659014,-1184.329507,-78448.178995
385.617798,5477.523971,-2072.576638,-77375.645298
385.620370,-5329.482782,0.000000,-75843.454302
385.622942,592.164754,-888.247130,-77069.207099
385.625514,-13027.624579,-1480.411884,-78754.617194
385.628086,-3552.988522,4885.359217,-73851.606007
385.630658,11399.171507,-3256.906145,-79367.493593
385.633230,15692.365970,-2516.700203,-78754.617194
385.635802,11547.212695,-592.164754,-77682.083497
385.638374,0.000000,2220.617826,-77069.207099
385.640947,-4589.276840,-1036.288319,-79367.493593
385.643519,5477.523971,-148.041188,-76915.987999
385.646091,4885.359217,148.041188,-79673.931792
385.648663,15988.448347,-444.123565,-75690.235202
385.651235,14211.954086,-3701.029710,-79673.931792
385.653807,2220.617826,0.000000,-76303.111601
385.656379,-2368.659014,1480.411884,-76609.549800
385.658951,5773.606348,-2516.700203,-78601.398095
385.661525,12879.583391,-444.123565,-79827.150892
385.664099,11103.089130,-888.247130,-77528.864398
385.666672,10658.965565,-2072.576638,-78294.959896
385.669246,3701.029710,-740.205942,-79980.369991
385.671820,592.164754,-592.164754,-77069.207099
385.674393,-3552.988522,740.205942,-77682.083497
385.676967,12139.377449,-1480.411884,-77682.083497
385.679541,17616.901420,1332.370696,-76303.111601
385.682114,-11695.253884,-2368.659014,-80746.465489
385.684688,-5033.400406,-1184.329507,-74924.139704
385.687262,-17468.860231,-740.205942,-79673.931792
385.689835,-9622.677246,4885.359217,-74311.263306
385.692409,3849.070898,-1924.535449,-78448.178995
385.694983,6513.812290,-5033.400406,-79673.931792
385.697557,-2220.617826,-1480.411884,-77835.302597
385.700130,-5329.482782,3701.029710,-75537.016103
385.702704,-13471.748144,-3849.070898,-79520.712692
385.705278,-8586.388927,-148.041188,-76915.987999
385.707851,6217.729913,148.041188,-77682.083497
385.710425,-592.164754,-2368.659014,-79980.369991
385.712999,-7402.059420,296.082377,-77069.207099
385.715572,-12435.459826,-740.205942,-77222.426198
385.718146,-8290.306550,148.041188,-78448.178995
385.720720,-10066.800811,-2368.659014,-77682.083497
385.723293,-3701.029710,-148.041188,-75383.797003
385.725867,1036.288319,592.164754,-77682.083497
385.728441,296.082377,-2072.576638,-78448.178995
385.731014,-16136.489536,740.205942,-76303.111601
385.733588,-888.247130,3256.906145,-75230.577904
385.736162,12287.418637,-3701.029710,-79367.493593
385.738736,13915.871710,296.082377,-75230.577904
385.741309,14359.995275,-1776.494261,-78754.617194
385.743883,4441.235652,888.247130,-77375.645298
385.746457,-3552.988522,-1332.370696,-78601.398095
385.749030,2220.617826,444.123565,-77222.426198
385.751604,7698.141797,-296.082377,-78907.836294
385.754178,16876.695478,-592.164754,-77222.426198
385.756751,9918.759623,-1184.329507,-78448.178995
385.759325,3701.029710,-1776.494261,-78294.959896
385.761899,-1184.329507,1332.370696,-78601.398095
385.764473,4589.276840,-592.164754,-78448.178995
385.767048,16284.530724,-888.247130,-78754.617194
385.769623,13471.748144,-1184.329507,-80286.808190
385.772199,4441.235652,-1480.411884,-77375.645298
385.774774,6957.935855,444.123565,-76456.330700
385.777349,-1036.288319,-1332.370696,-80286.808190
385.779924,4293.194464,444.123565,-75077.358804
385.782499,6809.894666,1480.411884,-75996.673402
385.785074,14063.912898,-1776.494261,-80286.808190
385.787650,-5773.606348,-2960.823768,-79214.274493
385.790225,-10362.883188,444.123565,-78601.398095
385.792800,-20873.807564,3256.906145,-77682.083497
385.795375,6957.935855,1924.535449,-79061.055394
385.797950,2664.741391,-3108.864956,-80593.246390
385.800525,6957.935855,-2960.823768,-77835.302597
385.803101,-6957.935855,148.041188,-78754.617194
385.805676,-15100.201217,2516.700203,-77069.207099
385.808251,-8142.265362,-1480.411884,-77528.864398
385.810826,592.164754,888.247130,-78601.398095
385.813401,-1184.329507,-3701.029710,-78907.836294
385.815977,-11103.089130,-1036.288319,-80286.808190
385.818552,-11251.130318,1332.370696,-76609.549800
385.821127,-1036.288319,-2664.741391,-82738.313784
385.823702,-10658.965565,296.082377,-79367.493593
385.826277,-3997.112087,3701.029710,-77988.521696
385.828852,6217.729913,-3701.029710,-83351.190182
385.831428,-8586.388927,-592.164754,-77682.083497
385.834003,-5625.565159,1480.411884,-77988.521696
385.836578,-5181.441594,-2812.782580,-82891.532884
385.839153,11695.253884,296.082377,-76456.330700
385.841728,7254.018232,-2368.659014,-78448.178995
385.844303,17616.901420,-296.082377,-75996.673402
385.846879,8142.265362,-1628.453072,-79827.150892
385.849454,-2664.741391,-1036.288319,-76303.111601
385.852029,-4293.194464,-1924.535449,-77069.207099
385.854604,9178.553681,-444.123565,-78448.178995
385.857179,13767.830521,-296.082377,-77835.302597
385.859755,13619.789333,296.082377,-75843.454302
385.862330,6217.729913,-1036.288319,-78294.959896
385.864905,-148.041188,-1924.535449,-81052.903688
385.867480,6513.812290,2368.659014,-75383.797003
385.870056,13767.830521,148.041188,-79980.369991
385.872631,13767.830521,-888.247130,-79367.493593
385.875206,2368.659014,-148.041188,-76609.549800
385.877782,8290.306550,-2072.576638,-81052.903688
385.880357,-148.041188,-3256.906145,-79061.055394
385.882932,-888.247130,2960.823768,-75843.454302
385.885508,1924.535449,148.041188,-79673.931792
385.888083,22058.137072,-592.164754,-75843.454302
385.890659,-11399.171507,0.000000,-80440.027290
385.893234,-4145.153275,-2220.617826,-75383.797003
385.895809,-20281.642811,-2664.741391,-78294.959896
385.898385,-12731.542202,5625.565159,-75690.235202
385.900960,8438.347739,-1628.453072,-77069.207099
385.903535,3997.112087,-4589.276840,-78294.959896
385.906111,-296.082377,592.164754,-77069.207099
385.908686,-6661.853478,2664.741391,-75690.235202
385.911262,-14508.036463,-2812.782580,-78907.836294
385.913837,2220.617826,2072.576638,-76149.892501
385.916412,-1184.329507,-1480.411884,-81206.122788
385.918988,-8142.265362,1184.329507,-77835.302597
385.921563,2072.576638,-296.082377,-77682.083497
385.924138,-13323.706956,-1628.453072,-79980.369991
385.926714,-9622.677246,1776.494261,-75537.016103
385.929289,2812.782580,2072.576638,-77222.426198
385.931865,-888.247130,-3108.864956,-81665.780087
385.934440,-2812.782580,296.082377,-75077.358804
385.937015,-11103.089130,-296.082377,-80593.246390
385.939591,1776.494261,296.082377,-78601.398095
385.942166,-1628.453072,148.041188,-78754.617194
385.944741,10362.883188,-592.164754,-77835.302597
385.947317,23242.466579,-1332.370696,-77682.083497
385.949892,12139.377449,-1480.411884,-79827.150892
385.952468,-1184.329507,-148.041188,-74004.825107
385.955043,-11103.089130,-1184.329507,-78754.617194
385.957618,11991.336260,-1480.411884,-78601.398095
385.960194,12879.583391,888.247130,-78754.617194
385.962769,11103.089130,2072.576638,-76609.549800
385.965344,8290.306550,-2368.659014,-79520.712692
385.967920,-2368.659014,-1924.535449,-78907.836294
385.970495,2072.576638,740.205942,-76149.892501
385.973071,10214.842000,-2220.617826,-78601.398095
385.975646,15988.448347,-148.041188,-79214.274493
385.978222,12139.377449,-740.205942,-77222.426198
385.980798,2220.617826,-2960.823768,-78907.836294
385.983373,-2516.700203,-592.164754,-77682.083497
385.985949,4885.359217,148.041188,-76149.892501
385.988524,5773.606348,-1776.494261,-79673.931792
385.991100,18357.107362,1332.370696,-74617.701505
385.993675,-5477.523971,-3404.947333,-82738.313784
385.996251,-5181.441594,-1036.288319,-75077.358804
385.998826,-21465.972318,-2072.576638,-78141.740796
386.001402,-6661.853478,4589.276840,-76149.892501
386.003978,5773.606348,-1036.288319,-77069.207099
386.006553,9770.718434,-4589.276840,-77069.207099
386.009129,-2812.782580,-1776.494261,-79061.055394
386.011704,-12879.583391,4589.276840,-75843.454302
386.014280,-12435.459826,888.247130,-79827.150892
386.016855,-3701.029710,-2516.700203,-77375.645298
386.019431,2368.659014,-888.247130,-77375.645298
386.022006,-3849.070898,592.164754,-79214.274493
386.024582,-15248.242405,-296.082377,-77222.426198
386.027158,-12287.418637,888.247130,-76303.111601
386.029733,-444.123565,-1776.494261,-79520.712692
386.032309,-6957.935855,-1332.370696,-77988.521696
386.034884,-3701.029710,2812.782580,-77682.083497
386.037460,9918.759623,-3404.947333,-79673.931792
386.040035,-13175.665768,-1036.288319,-80593.246390
386.042611,-14063.912898,2072.576638,-76915.987999
386.045186,1332.370696,740.205942,-78448.178995
386.047762,23242.466579,-3849.070898,-81052.903688
386.050338,19541.436869,-1776.494261,-76762.768900
386.052913,-444.123565,1628.453072,-78448.178995
386.055489,888.247130,-740.205942,-78754.617194
386.058064,-3404.947333,-4885.359217,-79673.931792
386.060640,2664.741391,148.041188,-76149.892501
386.063215,16284.530724,740.205942,-79673.931792
386.065791,12583.501014,-2368.659014,-79061.055394
386.068366,-2664.741391,-444.123565,-75996.673402
386.070942,148.041188,-1036.288319,-77222.426198
386.073517,8734.430116,-888.247130,-77528.864398
386.076092,6661.853478,-592.164754,-76456.330700
386.078667,11547.212695,3108.864956,-75383.797003
386.081242,12287.418637,-2072.576638,-79214.274493
386.083817,2812.782580,-3701.029710,-76762.768900
386.086392,-6513.812290,1036.288319,-77069.207099
386.088966,12139.377449,0.000000,-75537.016103
386.091541,11103.089130,-2368.659014,-80593.246390
386.094116,11843.295072,2516.700203,-76303.111601
386.096691,-10066.800811,-1924.535449,-82125.437386
386.099266,-7846.182985,-2220.617826,-79367.493593
386.101841,-22946.384202,-148.041188,-79367.493593
386.104416,-4737.318029,5329.482782,-77682.083497
386.106991,11843.295072,-3404.947333,-79827.150892
386.109566,6809.894666,-2516.700203,-80133.589091
386.112141,-8882.471304,4293.194464,-77528.864398
386.114716,-23094.425390,1036.288319,-79214.274493
386.117291,-5773.606348,-1036.288319,-78754.617194
386.119866,2812.782580,-2812.782580,-79520.712692
386.122440,-1924.535449,-740.205942,-77835.302597
386.125015,1480.411884,888.247130,-79061.055394
386.127590,-11695.253884,-1332.370696,-80593.246390
386.130165,-14804.118840,1924.535449,-77069.207099
386.132740,148.041188,-2220.617826,-80440.027290
386.135315,148.041188,-3552.988522,-81206.122788
386.137890,1628.453072,1924.535449,-75383.797003
386.140465,-5921.647536,740.205942,-79673.931792
386.143040,-7105.977043,-2516.700203,-76915.987999
386.145615,-15248.242405,2368.659014,-76609.549800
386.148190,19985.560434,-2368.659014,-77835.302597
386.150765,25611.125593,-1628.453072,-78754.617194
386.153340,8734.430116,1480.411884,-77835.302597
386.155914,-9474.636058,2072.576638,-74924.139704
386.158489,-5181.441594,-2072.576638,-80746.465489
386.161064,10658.965565,-3552.988522,-79214.274493
386.163639,7994.224174,2664.741391,-76303.111601
386.166214,15396.283594,1924.535449,-77375.645298
386.168789,5921.647536,-2960.823768,-80899.684589
386.171364,4589.276840,-888.247130,-75843.454302
386.173939,-1480.411884,-888.247130,-79673.931792
386.176513,5921.647536,-888.247130,-78601.398095
386.179088,15988.448347,2516.700203,-76609.549800
386.181662,11547.212695,-444.123565,-79214.274493
386.184237,1776.494261,-2812.782580,-78448.178995
386.186811,296.082377,-1776.494261,-77988.521696
386.189386,-1036.288319,-888.247130,-79367.493593
386.191960,12287.418637,1480.411884,-75537.016103
386.194535,15100.201217,740.205942,-79061.055394
386.197109,-3997.112087,-1332.370696,-80286.808190
386.199684,-8438.347739,-1480.411884,-76149.892501
386.202258,-21762.054695,-1924.535449,-79980.369991
386.204833,2072.576638,3701.029710,-77682.083497
386.207407,6957.935855,-1332.370696,-78448.178995
386.209982,8142.265362,-3256.906145,-79673.931792
386.212556,-9770.718434,3256.906145,-79673.931792
386.215131,-15692.365970,740.205942,-76303.111601
386.217705,-14063.912898,-1332.370696,-78601.398095
386.220280,2960.823768,0.000000,-77069.207099
386.222854,5773.606348,-1628.453072,-78448.178995
386.225429,-2960.823768,0.000000,-75843.454302
386.228003,-12583.501014,0.000000,-78294.959896
386.230577,-11103.089130,-2072.576638,-79673.931792
386.233152,-5477.523971,1184.329507,-77682.083497
386.235726,3997.112087,-2664.741391,-79827.150892
386.238301,5477.523971,-1184.329507,-78601.398095
386.240875,-8882.471304,2220.617826,-78294.959896
386.243450,-6661.853478,-1776.494261,-77988.521696
386.246024,-8734.430116,-444.123565,-78907.836294
386.248599,12731.542202,-1924.535449,-78601.398095
386.251173,25907.207970,-148.041188,-77528.864398
386.253748,12731.542202,-296.082377,-81512.560987
386.256322,-5329.482782,1184.329507,-75690.235202
386.258897,-8882.471304,-2812.782580,-80899.684589
386.261471,7105.977043,-2220.617826,-79520.712692
386.264046,11991.336260,1480.411884,-77988.521696
386.266620,16284.530724,2220.617826,-76762.768900
386.269195,12731.542202,-1924.535449,-78907.836294
386.271769,-4145.153275,-2960.823768,-79520.712692
386.274344,-5181.441594,-888.247130,-77528.864398
386.276918,14211.954086,1776.494261,-75230.577904
386.279493,17320.819043,-3404.947333,-81665.780087
386.282067,3701.029710,2072.576638,-74004.825107
386.284642,8734.430116,-1628.453072,-78754.617194
386.287216,-592.164754,-4885.359217,-81052.903688
386.289791,-296.082377,2368.659014,-74158.044206
386.292365,6809.894666,3108.864956,-78754.617194
386.294940,11547.212695,-740.205942,-79980.369991
386.297514,-1332.370696,-4737.318029,-77835.302597
386.300089,-29164.114115,-2812.782580,-78141.740796
386.302664,-17764.942608,3997.112087,-75230.577904
386.305238,8734.430116,0.000000,-81206.122788
386.307813,3404.947333,1332.370696,-76303.111601
386.310387,2812.782580,-592.164754,-78601.398095
386.312962,-740.205942,-1332.370696,-80286.808190
386.315536,-22798.343014,-148.041188,-76456.330700
386.318111,-8586.388927,1924.535449,-73698.386908
386.320685,-4145.153275,-2072.576638,-81665.780087
386.323260,3997.112087,-148.041188,-78601.398095
386.325834,740.205942,444.123565,-76915.987999
386.328409,-17616.901420,-740.205942,-79520.712692
386.330984,-9622.677246,1184.329507,-77528.864398
386.333558,296.082377,-1924.535449,-80593.246390
386.336133,-4145.153275,-296.082377,-77988.521696
386.338707,2516.700203,-592.164754,-77682.083497
386.341282,-8586.388927,1480.411884,-78448.178995
386.343856,-7550.100608,-1480.411884,-79827.150892
386.346431,8142.265362,-148.041188,-76609.549800
386.349005,12287.418637,-4293.194464,-81359.341888
386.351580,23834.631332,1776.494261,-74004.825107
386.354154,7698.141797,148.041188,-80593.246390
386.356729,-3256.906145,-296.082377,-77835.302597
386.359304,-7994.224174,-3256.906145,-79673.931792
386.361878,8438.347739,-592.164754,-78754.617194
386.364452,17764.942608,1628.453072,-77988.521696
386.367026,15396.283594,-2072.576638,-77988.521696
386.369600,-4589.276840,-1628.453072,-77835.302597
386.372174,8290.306550,-444.123565,-75843.454302
386.374748,-1332.370696,-1924.535449,-80899.684589
386.377323,13471.748144,3256.906145,-74924.139704
386.379897,19245.354492,1184.329507,-78907.836294
386.382471,8290.306550,-2368.659014,-78141.740796
386.385045,-7402.059420,-1924.535449,-77375.645298
386.387619,3404.947333,-444.123565,-76303.111601
386.390193,5329.482782,-888.247130,-80286.808190
386.392767,18653.189738,2960.823768,-74617.701505
386.395342,-8586.388927,-740.205942,-81512.560987
386.397916,-592.164754,-3256.906145,-76609.549800
386.400490,-24722.878463,-2220.617826,-79673.931792
386.403064,-16876.695478,3552.988522,-75996.673402
386.405638,7402.059420,-740.205942,-78601.398095
386.408212,8734.430116,-3108.864956,-80286.808190
386.410787,2664.741391,-740.205942,-76915.987999
386.413361,-18653.189738,2220.617826,-76303.111601
386.415935,-11399.171507,592.164754,-78448.178995
386.418509,-3552.988522,-3108.864956,-79061.055394
386.421083,-3997.112087,0.000000,-77682.083497
386.423657,7105.977043,1184.329507,-78907.836294
386.426231,-8142.265362,-2072.576638,-81206.122788
386.428806,-19837.519246,2664.741391,-77375.645298
386.431380,-6069.688724,1924.535449,-77835.302597
386.433954,2368.659014,-2960.823768,-81206.122788
386.436528,-4293.194464,296.082377,-76762.768900
386.439102,-3701.029710,3404.947333,-77528.864398
386.441676,-2812.782580,-2664.741391,-80593.246390
386.444251,-3997.112087,2072.576638,-77222.426198
386.446825,7402.059420,-4145.153275,-79061.055394
386.449399,27239.578666,-1480.411884,-77682.083497
386.451973,13323.706956,-444.123565,-79827.150892
386.454547,-1628.453072,148.041188,-76762.768900
386.457121,-10955.047942,-2220.617826,-79061.055394
386.459695,6661.853478,-1776.494261,-79367.493593
386.462270,16432.571912,-148.041188,-78141.740796
386.464843,16136.489536,592.164754,-76762.768900
386.467417,9770.718434,-1036.288319,-78601.398095
386.469990,-2960.823768,-3108.864956,-79980.369991
386.472564,4293.194464,1332.370696,-76456.330700
386.475137,13471.748144,-1184.329507,-79673.931792
386.477711,15544.324782,-296.082377,-79980.369991
386.480284,4441.235652,2220.617826,-76303.111601
386.482857,6809.894666,-1776.494261,-79980.369991
386.485431,-888.247130,-5329.482782,-79827.150892
386.488004,-148.041188,3552.988522,-75996.673402
386.490578,15988.448347,888.247130,-78448.178995
386.493151,3404.947333,-1036.288319,-79673.931792
386.495725,-7846.182985,-2664.741391,-76149.892501
386.498298,-25018.960840,-1332.370696,-78601.398095
386.500872,-11695.253884,3849.070898,-76915.987999
386.503445,9030.512492,-3108.864956,-79061.055394
386.506019,11991.336260,-3256.906145,-76303.111601
386.508592,-4737.318029,-296.082377,-77069.207099
386.511166,-10807.006753,2812.782580,-76456.330700
386.513739,-11547.212695,-2072.576638,-77835.302597
386.516313,-3997.112087,1332.370696,-77222.426198
386.518886,-2812.782580,-740.205942,-79214.274493
386.521460,7402.059420,1332.370696,-77988.521696
386.524033,-10510.924376,-2516.700203,-79520.712692
386.526607,-13027.624579,2220.617826,-76456.330700
386.529180,-8586.388927,-148.041188,-79061.055394
386.531754,-1628.453072,-1776.494261,-79367.493593
386.534327,2664.741391,-444.123565,-76609.549800
386.536901,-9030.512492,1184.329507,-78448.178995
386.539474,-2516.700203,-888.247130,-77069.207099
386.542048,740.205942,1036.288319,-77222.426198
386.544621,8290.306550,-5773.606348,-82278.656485
386.547195,21317.931130,-296.082377,-73698.386908
386.549768,8586.388927,1332.370696,-81512.560987
386.552342,1776.494261,-296.082377,-76456.330700
386.554915,-7550.100608,-2664.741391,-78294.959896
386.557489,2664.741391,-1480.411884,-80593.246390
386.560062,16876.695478,0.000000,-77222.426198
386.562636,9474.636058,740.205942,-78141.740796
386.565209,7402.059420,1036.288319,-76762.768900
386.567782,7105.977043,-888.247130,-77682.083497
386.570355,-1628.453072,-1036.288319,-79520.712692
386.572927,11547.212695,2368.659014,-73391.948708
386.575500,12731.542202,296.082377,-78601.398095
386.578073,10955.047942,-1480.411884,-77069.207099
386.580646,1776.494261,-2368.659014,-76149.892501
386.583218,-740.205942,-3256.906145,-79673.931792
386.585791,7254.018232,888.247130,-76456.330700
386.588364,19097.313304,2368.659014,-78601.398095
386.590936,-4293.194464,-3404.947333,-80133.589091
386.593509,-15396.283594,-3701.029710,-77528.864398
386.596082,-18801.230927,1036.288319,-79673.931792
386.598655,-3108.864956,2072.576638,-79980.369991
386.601227,3552.988522,-1628.453072,-77528.864398
386.603800,2960.823768,-1332.370696,-80899.684589
386.606373,0.000000,-444.123565,-77682.083497
386.608946,-18357.107362,-296.082377,-78907.836294
386.611518,-11695.253884,-1480.411884,-77835.302597
386.614091,-4589.276840,-296.082377,-79214.274493
386.616664,1036.288319,-1628.453072,-77988.521696
386.619237,1332.370696,740.205942,-76456.330700
386.621809,-4589.276840,-1184.329507,-79673.931792
386.624382,-13471.748144,-592.164754,-81512.560987
386.626955,-6513.812290,888.247130,-77682.083497
386.629528,9030.512492,-444.123565,-80746.465489
386.632100,-4293.194464,-2072.576638,-80440.027290
386.634673,-9030.512492,3404.947333,-75690.235202
386.637246,-7698.141797,1924.535449,-79214.274493
386.639819,15840.407159,-4293.194464,-78907.836294
386.642391,22206.178260,-1480.411884,-77682.083497
386.644964,7550.100608,2368.659014,-77682.083497
386.647537,296.082377,2960.823768,-76149.892501
386.650110,-7698.141797,-3404.947333,-82125.437386
386.652682,5033.400406,-1036.288319,-76149.892501
386.655255,12435.459826,1036.288319,-77682.083497
386.657828,12287.418637,148.041188,-79214.274493
386.660401,888.247130,-296.082377,-75996.673402
386.662973,8142.265362,-1776.494261,-76456.330700
386.665546,-4589.276840,-1036.288319,-80746.465489
386.668119,13175.665768,3849.070898,-74158.044206
386.670690,12435.459826,-444.123565,-79520.712692
386.673262,8438.347739,-148.041188,-75077.358804
386.675833,3849.070898,-1776.494261,-76149.892501
386.678405,740.205942,-3849.070898,-80286.808190
386.680977,6365.771101,-592.164754,-77988.521696
386.683548,12879.583391,3701.029710,-77222.426198
386.686120,-5033.400406,-3404.947333,-81972.218286
386.688691,-5181.441594,-1776.494261,-75230.577904
386.691263,-22502.260637,-592.164754,-79980.369991
386.693834,-7105.977043,3404.947333,-77222.426198
386.696406,2220.617826,-2220.617826,-79367.493593
386.698977,5773.606348,-1628.453072,-77988.521696
386.701549,3108.864956,-1332.370696,-78448.178995
386.704120,-14952.160028,-592.164754,-79214.274493
386.706692,-12731.542202,-740.205942,-78141.740796
386.709264,-3108.864956,-1480.411884,-79520.712692
386.711835,-1036.288319,-2072.576638,-79367.493593
386.714407,1480.411884,-1036.288319,-77222.426198
386.716978,-10214.842000,-2072.576638,-79367.493593
386.719550,-10658.965565,2220.617826,-78601.398095
386.722121,-7105.977043,-2960.823768,-78294.959896
386.724693,-3404.947333,1184.329507,-78601.398095
386.727264,-1924.535449,-1036.288319,-78754.617194
386.729836,-2368.659014,-1480.411884,-76762.768900
386.732408,-11843.295072,2072.576638,-79673.931792
386.734979,16728.654289,-1776.494261,-76456.330700
386.737551,13915.871710,-3256.906145,-80899.684589
386.740122,13471.748144,-444.123565,-75383.797003
386.742694,296.082377,2960.823768,-75537.016103
386.745265,-2960.823768,-2220.617826,-79980.369991
386.747837,6957.935855,-4589.276840,-75230.577904
386.750408,9326.594869,-592.164754,-79061.055394
386.752980,16284.530724,1480.411884,-76915.987999
386.755552,13767.830521,-1924.535449,-78294.959896
386.758123,-3997.112087,-1776.494261,-78294.959896
386.760695,7846.182985,296.082377,-76609.549800
386.763266,15248.242405,-4145.153275,-79980.369991
386.765838,3108.864956,1184.329507,-77835.302597
386.768409,14508.036463,3701.029710,-75843.454302
386.770981,9178.553681,-3701.029710,-81818.999186
386.773552,0.000000,-6069.688724,-79827.150892
386.776123,2664.741391,3404.947333,-72779.072310
386.778693,6069.688724,1776.494261,-81512.560987
386.781264,7846.182985,-2368.659014,-77682.083497
386.783835,-15544.324782,-2368.659014,-77682.083497
386.786405,-24278.754898,740.205942,-77835.302597
386.788976,-4737.318029,1480.411884,-78907.836294
386.791547,1628.453072,-3108.864956,-77988.521696
386.794117,2812.782580,-1628.453072,-75537.016103
386.796688,1332.370696,-444.123565,-77222.426198
386.799259,-14211.954086,-888.247130,-78754.617194
386.801829,-16580.613101,296.082377,-75690.235202
386.804400,1480.411884,-1184.329507,-77222.426198
386.806971,-2220.617826,-1184.329507,-79673.931792
386.809541,1184.329507,2072.576638,-74158.044206
386.812112,-11991.336260,-740.205942,-79980.369991
386.814683,-11843.295072,740.205942,-77375.645298
386.817253,-9030.512492,1036.288319,-77528.864398
386.819824,2516.700203,-888.247130,-77375.645298
386.822395,-4293.194464,-1480.411884,-79520.712692
386.824965,-1480.411884,1184.329507,-75843.454302
386.827536,-9770.718434,444.123565,-81359.341888
386.830107,13619.789333,-2516.700203,-75843.454302
386.832677,14952.160028,-2220.617826,-80899.684589
386.835248,16728.654289,-740.205942,-77835.302597
386.837819,444.123565,2960.823768,-74158.044206
386.840389,-9030.512492,-1480.411884,-80746.465489
386.842960,4589.276840,-888.247130,-77835.302597
386.845531,13915.871710,-296.082377,-78601.398095
386.848101,9326.594869,740.205942,-79367.493593
386.850672,7105.977043,444.123565,-75996.673402
386.853243,11399.171507,-2812.782580,-78294.959896
386.855814,-5033.400406,-3108.864956,-78601.398095
386.858384,8586.388927,2516.700203,-75077.358804
386.860955,18653.189738,-1332.370696,-81972.218286
386.863526,11251.130318,-3552.988522,-79214.274493
386.866096,-888.247130,-296.082377,-74924.139704
386.868667,4589.276840,-2368.659014,-80286.808190
386.871238,9622.677246,-2072.576638,-79214.274493
386.873808,5773.606348,4737.318029,-76149.892501
386.876378,-3256.906145,-3701.029710,-79061.055394
386.878948,-12583.501014,-3552.988522,-77835.302597
386.881518,-22354.219448,1036.288319,-77835.302597
386.884089,-3849.070898,2812.782580,-78754.617194
386.886659,8882.471304,-3256.906145,-78141.740796
386.889229,-148.041188,-2368.659014,-80133.589091
386.891799,-4589.276840,4293.194464,-76303.111601
386.894369,-13027.624579,-1776.494261,-81052.903688
386.896939,-7254.018232,-148.041188,-77375.645298
386.899509,-2960.823768,1184.329507,-79214.274493
386.902079,-3108.864956,-4145.153275,-79827.150892
386.904649,-5329.482782,1776.494261,-76456.330700
386.907219,-5181.441594,-1332.370696,-80593.246390
386.909789,-6069.688724,-2516.700203,-81206.122788
386.912359,-10658.965565,740.205942,-77222.426198
386.914929,1924.535449,-740.205942,-77988.521696
386.917499,-7254.018232,-2516.700203,-78601.398095
386.920069,-8142.265362,3108.864956,-75843.454302
386.922639,5033.400406,-148.041188,-78294.959896
386.925210,13323.706956,-3552.988522,-79520.712692
386.927780,17320.819043,-1480.411884,-75690.235202
386.930350,8734.430116,3849.070898,-78141.740796
386.932920,3404.947333,-1184.329507,-75383.797003
386.935490,-3108.864956,-4441.235652,-78754.617194
386.938060,2812.782580,1776.494261,-77069.207099
386.940630,19541.436869,-1480.411884,-76915.987999
386.943200,9178.553681,-740.205942,-78448.178995
386.945770,-296.082377,1184.329507,-76303.111601
386.948340,9770.718434,-1184.329507,-76456.330700
386.950910,0.000000,-4145.153275,-80286.808190
386.953480,6217.729913,1776.494261,-75383.797003
386.956050,13619.789333,1332.370696,-73851.606007
386.958620,10510.924376,-3404.947333,-79061.055394
386.961190,-2368.659014,-3404.947333,-76303.111601
386.963760,4589.276840,2072.576638,-75996.673402
386.966331,12287.418637,-444.123565,-79980.369991
386.968901,-3108.864956,2072.576638,-75996.673402
386.971471,-5033.400406,-2072.576638,-76762.768900
386.974041,-19689.478057,-4293.194464,-80440.027290
386.976611,-13027.624579,5477.523971,-74924.139704
386.979180,1036.288319,-148.041188,-77835.302597
386.981749,6365.771101,-1924.535449,-79061.055394
386.984317,-740.205942,-888.247130,-79214.274493
386.986886,-12287.418637,444.123565,-76915.987999
386.989455,-17764.942608,-1776.494261,-77375.645298
386.992024,1776.494261,-148.041188,-78907.836294
386.994593,-2368.659014,-1184.329507,-81206.122788
386.997162,-5181.441594,1184.329507,-75537.016103
386.999730,-10807.006753,2368.659014,-74617.701505
387.002299,-5181.441594,-2072.576638,-81665.780087
387.004868,-9918.759623,296.082377,-75843.454302
387.007437,-148.041188,-148.041188,-76762.768900
387.010006,-4293.194464,-1776.494261,-79367.493593
387.012575,-5477.523971,-444.123565,-75537.016103
387.015144,148.041188,1776.494261,-77069.207099
387.017712,14211.954086,-4885.359217,-79827.150892
387.020281,19393.395680,-444.123565,-77222.426198
387.022850,8882.471304,2220.617826,-79520.712692
387.025419,-592.164754,-1480.411884,-76915.987999
387.027988,-4737.318029,-2812.782580,-80440.027290
387.030557,4441.235652,-1036.288319,-78907.836294
387.033125,15248.242405,1776.494261,-77682.083497
387.035694,10214.842000,-1776.494261,-79214.274493
387.038263,7105.977043,1924.535449,-76609.549800
387.040832,5477.523971,592.164754,-78601.398095
387.043401,9030.512492,-2664.741391,-79061.055394
387.045970,1776.494261,1184.329507,-77375.645298
387.048539,11843.295072,4589.276840,-75383.797003
387.051107,8586.388927,-1924.535449,-80899.684589
387.053676,1776.494261,-3108.864956,-76762.768900
387.056245,296.082377,2960.823768,-77682.083497
387.058814,16580.613101,296.082377,-79367.493593
387.061383,-1924.535449,296.082377,-79520.712692
387.063952,-13915.871710,-4589.276840,-78141.740796
387.066520,-14063.912898,-1480.411884,-77069.207099
387.069089,-9770.718434,1480.411884,-80133.589091
387.071658,9918.759623,-3849.070898,-77069.207099
387.074227,2664.741391,-740.205942,-78141.740796
387.076796,-5033.400406,-296.082377,-78907.836294
387.079365,-10214.842000,740.205942,-76609.549800
387.081933,-4885.359217,-888.247130,-78294.959896
387.084501,-8290.306550,-2220.617826,-79061.055394
387.087069,-12583.501014,1776.494261,-77375.645298
387.089638,6217.729913,592.164754,-77069.207099
387.092206,-5625.565159,-2664.741391,-80746.465489
387.094774,-11695.253884,-1628.453072,-78141.740796
387.097342,-11547.212695,2664.741391,-75996.673402
387.099911,8734.430116,-3404.947333,-81665.780087
387.102479,-9326.594869,740.205942,-78448.178995
387.105047,-7105.977043,4293.194464,-74924.139704
387.107615,10066.800811,-2812.782580,-81818.999186
387.110183,12583.501014,-4885.359217,-79214.274493
387.112752,15248.242405,592.164754,-75077.358804
387.115320,888.247130,2960.823768,-80746.465489
387.117888,3701.029710,-3552.988522,-78907.836294
387.120456,-3552.988522,-3997.112087,-78141.740796
387.123025,1924.535449,1776.494261,-77069.207099
387.125593,21614.013506,-1776.494261,-79061.055394
387.128161,11103.089130,-1036.288319,-79520.712692
387.130729,1924.535449,740.205942,-75690.235202
387.133298,5181.441594,-2812.782580,-79520.712692
387.135866,8438.347739,-2368.659014,-79673.931792
387.138434,14656.077652,-592.164754,-76762.768900
387.141002,4737.318029,2220.617826,-75843.454302
387.143570,6217.729913,-888.247130,-79367.493593
387.146139,10510.924376,-5181.441594,-78448.178995
387.148707,-1628.453072,-1776.494261,-78448.178995
387.151275,9918.759623,5477.523971,-76456.330700
387.153843,-740.205942,-5329.482782,-82738.313784
387.156412,-14804.118840,-1628.453072,-75383.797003
387.158980,-17616.901420,1184.329507,-78754.617194
387.161548,-1628.453072,-148.041188,-80746.465489
387.164116,5181.441594,-1480.411884,-77069.207099
387.166685,1776.494261,-1036.288319,-77988.521696
387.169253,-5181.441594,1332.370696,-77835.302597
387.171821,-10807.006753,-148.041188,-77222.426198
387.174389,-9770.718434,-1776.494261,-76762.768900
387.176957,-7402.059420,1628.453072,-76609.549800
387.179526,1332.370696,-148.041188,-78294.959896
387.182094,-4145.153275,-1480.411884,-77069.207099
387.184662,-10658.965565,592.164754,-77222.426198
387.187230,-6957.935855,-296.082377,-79827.150892
387.189798,-444.123565,-2812.782580,-80133.589091
387.192366,-5477.523971,-148.041188,-78754.617194
387.194933,-1924.535449,740.205942,-76456.330700
387.197501,-6661.853478,148.041188,-81512.560987
387.200069,13175.665768,-1332.370696,-76456.330700
387.202637,16432.571912,-2072.576638,-81052.903688
387.205205,15692.365970,296.082377,-79673.931792
387.207773,1776.494261,2960.823768,-73085.510509
387.210341,-10066.800811,-2220.617826,-80746.465489
387.212909,6365.771101,-1776.494261,-77222.426198
387.215477,10066.800811,0.000000,-78907.836294
387.218045,12139.377449,148.041188,-77222.426198
387.220612,14359.995275,444.123565,-77988.521696
387.223180,4441.235652,-3404.947333,-80899.684589
387.225748,-592.164754,1776.494261,-76609.549800
387.228316,8142.265362,1184.329507,-75383.797003
387.230884,20429.683999,-1628.453072,-80746.465489
387.233452,444.123565,148.041188,-76762.768900
387.236020,3552.988522,-740.205942,-76303.111601
387.238588,12435.459826,-3701.029710,-81972.218286
