#time,accel_x,accel_y,accel_z
192.199040,2072.576638,-740.205942,-77682.083497
192.201656,1776.494261,-1332.370696,-78294.959896
192.204272,740.205942,-888.247130,-77682.083497
192.206888,-888.247130,-444.123565,-77988.521696
192.209504,1776.494261,-592.164754,-77069.207099
192.212120,1628.453072,-888.247130,-77835.302597
192.214736,1628.453072,-148.041188,-78141.740796
192.217352,592.164754,-296.082377,-78294.959896
192.219968,-592.164754,-444.123565,-77988.521696
192.222412,1036.288319,-1036.288319,-78141.740796
192.224855,2664.741391,-1480.411884,-77682.083497
192.227299,-148.041188,-296.082377,-76915.987999
192.229743,2664.741391,148.041188,-77528.864398
192.232187,1332.370696,-1776.494261,-78448.178995
192.234631,888.247130,-6957.935855,-77528.864398
192.237075,-2368.659014,-4293.194464,-78294.959896
192.239519,1480.411884,-4293.194464,-78601.398095
192.241962,4589.276840,-13471.748144,-78294.959896
192.244406,-296.082377,-11991.336260,-77682.083497
192.246850,-3108.864956,-6069.688724,-79520.712692
192.249294,2072.576638,1184.329507,-77222.426198
192.251738,1776.494261,3552.988522,-78294.959896
192.254182,-2812.782580,2812.782580,-79214.274493
192.256625,-1332.370696,3404.947333,-77682.083497
192.259069,3701.029710,148.041188,-75843.454302
192.261513,1480.411884,2072.576638,-75537.016103
192.263957,-2812.782580,-3701.029710,-78294.959896
192.266401,5181.441594,-1184.329507,-78141.740796
192.268845,5477.523971,4441.235652,-77988.521696
192.271289,3552.988522,8734.430116,-77528.864398
192.273732,1776.494261,3108.864956,-79673.931792
192.276176,7254.018232,2516.700203,-77528.864398
192.278620,-2516.700203,5329.482782,-78754.617194
192.281064,1480.411884,3552.988522,-77528.864398
192.283508,-740.205942,3256.906145,-78448.178995
192.285952,2368.659014,-2516.700203,-76915.987999
192.288396,-1184.329507,1776.494261,-78141.740796
192.290839,740.205942,2960.823768,-79214.274493
192.293283,-148.041188,1776.494261,-78448.178995
192.295727,-1036.288319,1036.288319,-78448.178995
192.298171,-2812.782580,-888.247130,-79367.493593
192.300615,148.041188,2664.741391,-77835.302597
192.303059,2220.617826,2812.782580,-78294.959896
192.305503,2220.617826,1776.494261,-77222.426198
192.307946,1480.411884,2664.741391,-76609.549800
192.310390,-444.123565,1628.453072,-77682.083497
192.312834,740.205942,5773.606348,-76456.330700
192.315278,-2664.741391,11991.336260,-79673.931792
192.317722,888.247130,1628.453072,-79214.274493
192.320226,-2220.617826,-592.164754,-77835.302597
192.322730,3404.947333,1924.535449,-76915.987999
192.325233,1628.453072,-1924.535449,-79367.493593
192.327737,-2812.782580,-2812.782580,-76303.111601
192.330241,3701.029710,296.082377,-77528.864398
192.332745,-888.247130,2072.576638,-78448.178995
192.335249,-148.041188,9770.718434,-75230.577904
192.337753,4293.194464,444.123565,-79214.274493
192.340257,2664.741391,-1332.370696,-78141.740796
192.342761,-2812.782580,-3552.988522,-76915.987999
192.345265,-1036.288319,-6365.771101,-78907.836294
192.347768,1036.288319,-12731.542202,-79214.274493
192.350272,5773.606348,-9918.759623,-75843.454302
192.352776,-2664.741391,-4589.276840,-78294.959896
192.355280,2220.617826,1184.329507,-77988.521696
192.357784,3552.988522,-1184.329507,-78754.617194
192.360288,-1036.288319,740.205942,-77069.207099
192.362792,3997.112087,-1036.288319,-77069.207099
192.365296,-2368.659014,-9918.759623,-79673.931792
192.367799,1332.370696,-8882.471304,-75843.454302
192.370303,3256.906145,-9918.759623,-78601.398095
192.372807,444.123565,-5033.400406,-77682.083497
192.375311,-1184.329507,-2072.576638,-78294.959896
192.377815,3404.947333,-3849.070898,-77528.864398
192.380319,-148.041188,-888.247130,-77069.207099
192.382823,1776.494261,1332.370696,-78141.740796
192.385327,444.123565,-2368.659014,-79214.274493
192.387831,2220.617826,-1480.411884,-77069.207099
192.390334,-740.205942,2812.782580,-78601.398095
192.392838,5181.441594,-1480.411884,-80286.808190
192.395342,-3108.864956,-3256.906145,-77988.521696
192.397846,-1776.494261,-888.247130,-76609.549800
192.400350,1036.288319,-5329.482782,-79367.493593
192.402854,-1036.288319,-9474.636058,-75843.454302
192.405358,-5181.441594,-5921.647536,-77069.207099
192.407862,-5181.441594,-10510.924376,-79980.369991
192.410366,888.247130,-3404.947333,-75843.454302
192.412869,-1184.329507,-1184.329507,-78141.740796
192.415373,2220.617826,1332.370696,-76762.768900
192.417877,2812.782580,-1480.411884,-78601.398095
192.420419,444.123565,592.164754,-75077.358804
192.422960,1184.329507,-3404.947333,-78294.959896
192.425502,2072.576638,-14359.995275,-79061.055394
192.428043,3701.029710,-8142.265362,-75996.673402
192.430584,3256.906145,-888.247130,-77375.645298
192.433126,1332.370696,-4441.235652,-79214.274493
192.435667,2072.576638,6217.729913,-77375.645298
192.438209,5033.400406,5921.647536,-79061.055394
192.440750,-740.205942,8438.347739,-76762.768900
192.443292,4293.194464,8142.265362,-78294.959896
192.445833,2220.617826,-2960.823768,-77835.302597
192.448375,444.123565,1628.453072,-76609.549800
192.450916,-2812.782580,-1332.370696,-79061.055394
192.453458,1480.411884,-2812.782580,-78448.178995
192.455999,3552.988522,2220.617826,-77682.083497
192.458540,1184.329507,8142.265362,-78141.740796
192.461082,-2516.700203,9474.636058,-77682.083497
192.463623,5773.606348,3997.112087,-77682.083497
192.466165,1480.411884,9918.759623,-77375.645298
192.468706,-3552.988522,1776.494261,-78294.959896
192.471248,5477.523971,-5033.400406,-76915.987999
192.473789,1184.329507,1184.329507,-77682.083497
192.476331,3256.906145,3701.029710,-77988.521696
192.478872,-3701.029710,1480.411884,-81818.999186
192.481413,3849.070898,3701.029710,-76609.549800
192.483955,1924.535449,-6217.729913,-78294.959896
192.486496,-444.123565,-1480.411884,-78907.836294
192.489038,-296.082377,6809.894666,-78141.740796
192.491579,4145.153275,1184.329507,-78754.617194
192.494121,-4145.153275,1332.370696,-78907.836294
192.496662,3404.947333,5625.565159,-78448.178995
192.499204,740.205942,1924.535449,-77069.207099
192.501745,-296.082377,10510.924376,-75996.673402
192.504287,-3404.947333,1184.329507,-80440.027290
192.506828,296.082377,-444.123565,-78601.398095
192.509369,-1036.288319,9178.553681,-76915.987999
192.511911,-444.123565,-3108.864956,-78141.740796
192.514452,592.164754,3701.029710,-76456.330700
192.516994,-2960.823768,-444.123565,-79214.274493
192.519535,1184.329507,0.000000,-78294.959896
192.522099,3108.864956,4441.235652,-77375.645298
192.524665,-592.164754,9622.677246,-77069.207099
192.527230,-1332.370696,7254.018232,-79520.712692
192.529795,4145.153275,-3108.864956,-77222.426198
192.532361,1924.535449,-1628.453072,-77375.645298
192.534926,-5033.400406,2516.700203,-77835.302597
192.537491,-1036.288319,-7254.018232,-77835.302597
192.540057,2664.741391,-17616.901420,-78141.740796
192.542622,6661.853478,-4737.318029,-75077.358804
192.545187,-3552.988522,-888.247130,-79061.055394
192.547753,3256.906145,592.164754,-75537.016103
192.550318,1776.494261,-1776.494261,-79367.493593
192.552883,-1184.329507,-1332.370696,-75537.016103
192.555449,-2812.782580,444.123565,-77835.302597
192.558014,1332.370696,-4885.359217,-77069.207099
192.560579,2220.617826,-9326.594869,-75537.016103
192.563145,-1332.370696,-11695.253884,-79061.055394
192.565710,592.164754,-5329.482782,-76303.111601
192.568275,2812.782580,-1184.329507,-77682.083497
192.570841,2220.617826,1184.329507,-78907.836294
192.573406,3256.906145,-2516.700203,-78754.617194
192.575971,-592.164754,740.205942,-78448.178995
192.578537,0.000000,-2368.659014,-77682.083497
192.581102,3404.947333,-444.123565,-76609.549800
192.583667,-888.247130,2960.823768,-81052.903688
192.586232,-444.123565,-6957.935855,-79367.493593
192.588798,3849.070898,-3404.947333,-76149.892501
192.591363,-3404.947333,-1332.370696,-77375.645298
192.593928,-3108.864956,-3256.906145,-77988.521696
192.596494,3997.112087,-10807.006753,-79673.931792
192.599059,0.000000,-10510.924376,-76149.892501
192.601624,-148.041188,-3108.864956,-76915.987999
192.604190,-1332.370696,3108.864956,-77528.864398
192.606755,1184.329507,-4441.235652,-76762.768900
192.609320,5033.400406,296.082377,-76762.768900
192.611886,1480.411884,-296.082377,-80286.808190
192.614451,-1776.494261,-5625.565159,-77528.864398
192.617016,592.164754,-6809.894666,-77375.645298
192.619582,1332.370696,-14063.912898,-77222.426198
192.622147,3108.864956,-6513.812290,-76915.987999
192.624616,-2516.700203,0.000000,-78141.740796
192.627086,5181.441594,10214.842000,-76149.892501
192.629555,1480.411884,5477.523971,-79827.150892
192.632025,1184.329507,6513.812290,-76149.892501
192.634494,-1924.535449,7846.182985,-78601.398095
192.636964,4885.359217,888.247130,-77835.302597
192.639433,0.000000,-6365.771101,-75230.577904
192.641902,-444.123565,2664.741391,-78141.740796
192.644372,-888.247130,-1184.329507,-80286.808190
192.646841,3256.906145,2220.617826,-77222.426198
192.649311,3256.906145,16284.530724,-78907.836294
192.651780,1036.288319,7402.059420,-79980.369991
192.654249,3552.988522,5773.606348,-76149.892501
192.656719,3404.947333,6217.729913,-77528.864398
192.659188,1480.411884,-1628.453072,-77375.645298
192.661658,-1628.453072,1332.370696,-78448.178995
192.664127,-296.082377,-1332.370696,-78294.959896
192.666597,3552.988522,2368.659014,-78448.178995
192.669066,-2072.576638,1628.453072,-79673.931792
192.671535,-1184.329507,296.082377,-76609.549800
192.674005,1924.535449,-1776.494261,-77222.426198
192.676474,-2220.617826,-740.205942,-78141.740796
192.678944,296.082377,5773.606348,-75230.577904
192.681413,2812.782580,2368.659014,-79980.369991
192.683882,1776.494261,1776.494261,-77375.645298
192.686352,0.000000,8882.471304,-76609.549800
192.688821,-2072.576638,7994.224174,-79827.150892
192.691291,7254.018232,5625.565159,-76149.892501
192.693760,-2368.659014,-2368.659014,-77682.083497
192.696230,0.000000,2812.782580,-76762.768900
192.698699,2072.576638,-2072.576638,-78907.836294
192.701168,148.041188,-296.082377,-74770.920605
192.703638,-3108.864956,296.082377,-77375.645298
192.706107,5181.441594,-592.164754,-77835.302597
192.708577,3997.112087,6513.812290,-74924.139704
192.711046,1776.494261,13027.624579,-77375.645298
192.713515,6661.853478,1776.494261,-80286.808190
192.715985,148.041188,-3256.906145,-78754.617194
192.718454,3404.947333,-5329.482782,-76149.892501
192.720924,-1036.288319,-5329.482782,-78907.836294
192.723435,3552.988522,-16728.654289,-76303.111601
192.725946,-444.123565,-6957.935855,-78141.740796
192.728457,-2072.576638,-3108.864956,-78448.178995
192.730968,5921.647536,-148.041188,-77222.426198
192.733479,888.247130,-1036.288319,-79827.150892
192.735990,-1480.411884,3849.070898,-75383.797003
192.738501,-2812.782580,-5329.482782,-80746.465489
192.741013,8290.306550,-10214.842000,-74770.920605
192.743524,-3108.864956,-3997.112087,-77528.864398
192.746035,-3108.864956,-9622.677246,-78448.178995
192.748546,6069.688724,-8290.306550,-77682.083497
192.751057,2220.617826,-3256.906145,-75843.454302
192.753568,2960.823768,148.041188,-77222.426198
192.756079,-1036.288319,2220.617826,-80286.808190
192.758590,5921.647536,-5477.523971,-77682.083497
192.761101,3997.112087,-1184.329507,-76456.330700
192.763612,444.123565,-444.123565,-80899.684589
192.766124,2664.741391,-296.082377,-77835.302597
192.768635,1184.329507,-3701.029710,-79214.274493
192.771146,2220.617826,-2812.782580,-76915.987999
192.773657,296.082377,-4293.194464,-78448.178995
192.776168,2220.617826,-9622.677246,-77682.083497
192.778679,1924.535449,-8882.471304,-76303.111601
192.781190,-5329.482782,-7550.100608,-79214.274493
192.783701,3256.906145,444.123565,-76303.111601
192.786212,1628.453072,-888.247130,-76456.330700
192.788723,-592.164754,1184.329507,-75537.016103
192.791235,1036.288319,-1480.411884,-80593.246390
192.793746,296.082377,-6069.688724,-77988.521696
192.796257,148.041188,-2516.700203,-76456.330700
192.798768,592.164754,-8438.347739,-77682.083497
192.801279,2516.700203,-7698.141797,-79367.493593
192.803790,-296.082377,-4293.194464,-78754.617194
192.806301,-2960.823768,8290.306550,-77375.645298
192.808812,2516.700203,7105.977043,-78754.617194
192.811323,-148.041188,7698.141797,-78448.178995
192.813834,-3404.947333,8290.306550,-78141.740796
192.816346,3849.070898,-296.082377,-77988.521696
192.818857,-2516.700203,-2516.700203,-75537.016103
192.821368,-1924.535449,296.082377,-74004.825107
192.823908,1776.494261,-5181.441594,-79214.274493
192.826449,1776.494261,-2812.782580,-76456.330700
192.828990,1332.370696,15396.283594,-77222.426198
192.831530,888.247130,4737.318029,-81052.903688
192.834071,3849.070898,9326.594869,-76609.549800
192.836611,-148.041188,9326.594869,-79367.493593
192.839152,1184.329507,-3108.864956,-78601.398095
192.841692,296.082377,3404.947333,-77375.645298
192.844233,2072.576638,-1184.329507,-76609.549800
192.846774,-2516.700203,-4441.235652,-78448.178995
192.849314,-3701.029710,5181.441594,-77835.302597
192.851855,2072.576638,148.041188,-78448.178995
192.854395,4885.359217,0.000000,-75230.577904
192.856936,-3404.947333,444.123565,-78294.959896
192.859477,2368.659014,3404.947333,-77528.864398
192.862017,-2368.659014,1184.329507,-77682.083497
192.864558,1776.494261,4293.194464,-76456.330700
192.867098,1628.453072,8734.430116,-77375.645298
192.869639,2368.659014,4589.276840,-77682.083497
192.872179,1184.329507,4441.235652,-75843.454302
192.874720,1628.453072,888.247130,-78754.617194
192.877261,4293.194464,-444.123565,-76609.549800
192.879801,0.000000,-1480.411884,-76762.768900
192.882342,2960.823768,-2072.576638,-76456.330700
192.884882,4145.153275,888.247130,-79367.493593
192.887423,296.082377,5033.400406,-78907.836294
192.889964,5477.523971,11547.212695,-76303.111601
192.892504,-148.041188,4885.359217,-80440.027290
192.895045,1332.370696,-2220.617826,-78141.740796
192.897585,3552.988522,-6217.729913,-77069.207099
192.900126,-2368.659014,-5921.647536,-78907.836294
192.902666,2812.782580,-17912.983796,-78448.178995
192.905207,1184.329507,-9178.553681,-77528.864398
192.907748,-1184.329507,-296.082377,-77528.864398
192.910288,3552.988522,-1776.494261,-77375.645298
192.912829,0.000000,1184.329507,-78294.959896
192.915369,148.041188,1184.329507,-75230.577904
192.917910,-2812.782580,-2664.741391,-79980.369991
192.920451,4441.235652,-7994.224174,-75996.673402
192.922991,-3404.947333,-8586.388927,-77375.645298
192.925552,-3404.947333,-11103.089130,-75843.454302
192.928113,2960.823768,-6069.688724,-76303.111601
192.930674,4145.153275,-2368.659014,-77988.521696
192.933235,3108.864956,-4441.235652,-77222.426198
192.935796,-1036.288319,-1332.370696,-78294.959896
192.938356,2812.782580,888.247130,-79367.493593
192.940917,2220.617826,2516.700203,-76762.768900
192.943478,-3552.988522,-4145.153275,-77835.302597
192.946039,1184.329507,-3701.029710,-80133.589091
192.948600,1776.494261,-2812.782580,-77069.207099
192.951161,-2220.617826,-1036.288319,-76149.892501
192.953722,148.041188,-7846.182985,-78294.959896
192.956283,-3404.947333,-11103.089130,-79980.369991
192.958844,2960.823768,-5181.441594,-75690.235202
192.961404,1628.453072,-4589.276840,-78601.398095
192.963965,-1036.288319,2664.741391,-78141.740796
192.966526,-444.123565,148.041188,-77835.302597
192.969087,1036.288319,-5477.523971,-76762.768900
192.971648,-1184.329507,-2368.659014,-77988.521696
192.974209,-3404.947333,-888.247130,-77528.864398
192.976770,-2220.617826,-7402.059420,-77988.521696
192.979331,4293.194464,-8882.471304,-77222.426198
192.981892,-1036.288319,-3997.112087,-78448.178995
192.984452,2220.617826,7698.141797,-76609.549800
192.987013,-1036.288319,10658.965565,-77222.426198
192.989574,4589.276840,5921.647536,-77835.302597
192.992135,3552.988522,6365.771101,-77375.645298
192.994696,296.082377,2072.576638,-78448.178995
192.997257,296.082377,-444.123565,-76762.768900
192.999818,3256.906145,-1776.494261,-78294.959896
193.002379,296.082377,-5329.482782,-78294.959896
193.004940,1924.535449,2516.700203,-78448.178995
193.007512,1776.494261,11103.089130,-75996.673402
193.010084,-2220.617826,9326.594869,-77069.207099
193.012656,-2368.659014,6513.812290,-75383.797003
193.015228,-444.123565,2072.576638,-78601.398095
193.017800,1184.329507,-296.082377,-77528.864398
193.020372,-5181.441594,2516.700203,-74311.263306
193.022945,296.082377,1776.494261,-76456.330700
193.025517,-1776.494261,-4737.318029,-80899.684589
193.028089,5329.482782,-444.123565,-75383.797003
193.030661,-888.247130,3404.947333,-76609.549800
193.033233,-1480.411884,3701.029710,-77375.645298
193.035805,4145.153275,-740.205942,-78754.617194
193.038377,5625.565159,1628.453072,-77375.645298
193.040950,444.123565,6513.812290,-76915.987999
193.043522,-592.164754,11399.171507,-77069.207099
193.046094,-3701.029710,12731.542202,-78754.617194
193.048666,9030.512492,-2960.823768,-78601.398095
193.051238,4293.194464,888.247130,-77375.645298
193.053810,-296.082377,4441.235652,-79367.493593
193.056382,5329.482782,-5477.523971,-78448.178995
193.058955,3108.864956,-2368.659014,-76303.111601
193.061527,0.000000,3552.988522,-77682.083497
193.064099,2812.782580,5329.482782,-79673.931792
193.066671,2220.617826,9622.677246,-77069.207099
193.069243,444.123565,2516.700203,-75383.797003
193.071815,1036.288319,-5033.400406,-79673.931792
193.074387,-2960.823768,-7698.141797,-76762.768900
193.076960,-888.247130,-9326.594869,-77069.207099
193.079532,-3108.864956,-14656.077652,-77375.645298
193.082104,5773.606348,-7402.059420,-74311.263306
193.084676,-2516.700203,-444.123565,-79980.369991
193.087248,0.000000,3404.947333,-77222.426198
193.089820,3849.070898,2220.617826,-77528.864398
193.092392,0.000000,-1776.494261,-80440.027290
193.094965,1480.411884,-1184.329507,-76762.768900
193.097537,1036.288319,-15988.448347,-81206.122788
193.100109,3849.070898,-9178.553681,-75383.797003
193.102681,444.123565,-5033.400406,-79980.369991
193.105253,3701.029710,-1924.535449,-79367.493593
193.107825,1332.370696,-444.123565,-78601.398095
193.110406,3404.947333,-7698.141797,-77069.207099
193.112986,0.000000,-2072.576638,-78754.617194
193.115567,1924.535449,3108.864956,-73698.386908
193.118147,-5181.441594,-5921.647536,-77988.521696
193.120728,-2812.782580,-5773.606348,-78294.959896
193.123308,2516.700203,-2368.659014,-77835.302597
193.125889,-1036.288319,1332.370696,-76456.330700
193.128470,1184.329507,-7698.141797,-77682.083497
193.131050,-2812.782580,-14359.995275,-78754.617194
193.133631,1332.370696,-6365.771101,-77069.207099
193.136211,-444.123565,-740.205942,-78141.740796
193.138792,4145.153275,888.247130,-76915.987999
193.141372,2664.741391,-2516.700203,-80593.246390
193.143953,-3108.864956,-5329.482782,-79061.055394
193.146533,-296.082377,-1776.494261,-77528.864398
193.149114,3997.112087,-7105.977043,-77988.521696
193.151694,740.205942,-3256.906145,-76609.549800
193.154275,-3849.070898,-5921.647536,-80593.246390
193.156855,-444.123565,3108.864956,-77222.426198
193.159436,2072.576638,5477.523971,-78141.740796
193.162016,-888.247130,14359.995275,-75537.016103
193.164597,2220.617826,6957.935855,-78601.398095
193.167177,4885.359217,-444.123565,-78448.178995
193.169758,-592.164754,2368.659014,-76762.768900
193.172338,444.123565,1628.453072,-77835.302597
193.174919,2368.659014,-7254.018232,-75843.454302
193.177499,296.082377,2368.659014,-75537.016103
193.180080,888.247130,4589.276840,-78907.836294
193.182660,1036.288319,10955.047942,-77528.864398
193.185241,4293.194464,7698.141797,-78448.178995
193.187821,6217.729913,6661.853478,-78754.617194
193.190402,-296.082377,-1184.329507,-79520.712692
193.192982,4293.194464,-1184.329507,-77988.521696
193.195563,1776.494261,4737.318029,-75996.673402
193.198143,1480.411884,4589.276840,-77835.302597
193.200724,2516.700203,-7846.182985,-80746.465489
193.203304,7105.977043,-2072.576638,-77069.207099
193.205885,-2960.823768,7550.100608,-76762.768900
193.208465,-3849.070898,3404.947333,-79673.931792
193.211046,-592.164754,296.082377,-78601.398095
193.213630,296.082377,4145.153275,-78448.178995
193.216215,-740.205942,8734.430116,-77069.207099
193.218799,-1628.453072,13323.706956,-79214.274493
193.221384,-1184.329507,3404.947333,-77682.083497
193.223968,3849.070898,-5625.565159,-76762.768900
193.226553,-1332.370696,-1480.411884,-76915.987999
193.229137,-592.164754,2368.659014,-76762.768900
193.231721,-592.164754,-3997.112087,-78294.959896
193.234306,2664.741391,148.041188,-76915.987999
193.236890,296.082377,9918.759623,-78601.398095
193.239475,3552.988522,5181.441594,-77222.426198
193.242059,0.000000,7994.224174,-77835.302597
193.244643,2664.741391,-4441.235652,-77375.645298
193.247228,-1184.329507,-8882.471304,-77222.426198
193.249812,-1628.453072,-13175.665768,-79673.931792
193.252397,3404.947333,-8882.471304,-76915.987999
193.254981,0.000000,-6069.688724,-79520.712692
193.257566,5329.482782,-1628.453072,-76609.549800
193.260150,-3404.947333,1924.535449,-80440.027290
193.262734,3701.029710,2960.823768,-76149.892501
193.265319,1332.370696,444.123565,-78448.178995
193.267903,2664.741391,-4885.359217,-77069.207099
193.270488,-4885.359217,-7550.100608,-76609.549800
193.273072,-5625.565159,-5921.647536,-79061.055394
193.275656,2368.659014,-6217.729913,-79367.493593
193.278241,7846.182985,148.041188,-74158.044206
193.280825,-3108.864956,-5033.400406,-78141.740796
193.283410,-3701.029710,-5625.565159,-78907.836294
193.285994,6069.688724,1332.370696,-76762.768900
193.288579,2072.576638,5773.606348,-77375.645298
193.291163,-2220.617826,-4737.318029,-78448.178995
193.293747,1036.288319,-5033.400406,-78294.959896
193.296332,0.000000,-3997.112087,-78141.740796
193.298916,296.082377,-1036.288319,-76456.330700
193.301501,148.041188,-6957.935855,-78601.398095
193.304085,3849.070898,-16432.571912,-78907.836294
193.306670,-2072.576638,-1184.329507,-77222.426198
193.309254,-1184.329507,3404.947333,-77375.645298
193.311838,1036.288319,-3849.070898,-78754.617194
193.314423,-1776.494261,-4293.194464,-77682.083497
193.317010,148.041188,-3552.988522,-77375.645298
193.319596,-1776.494261,-2368.659014,-77988.521696
193.322183,4293.194464,-2960.823768,-76915.987999
193.324770,-1184.329507,-2812.782580,-79520.712692
193.327357,-3849.070898,3552.988522,-77988.521696
193.329944,4145.153275,5033.400406,-79673.931792
193.332530,1036.288319,6809.894666,-77988.521696
193.335117,1332.370696,10214.842000,-77222.426198
193.337704,-592.164754,296.082377,-78907.836294
193.340291,444.123565,-6069.688724,-78754.617194
193.342878,2368.659014,3849.070898,-76609.549800
193.345464,3404.947333,-3849.070898,-78754.617194
193.348051,-444.123565,1332.370696,-78448.178995
193.350638,-2220.617826,12139.377449,-79827.150892
193.353225,7402.059420,592.164754,-78907.836294
193.355811,2664.741391,9326.594869,-75077.358804
193.358398,-7550.100608,9474.636058,-78601.398095
193.360985,5921.647536,-1776.494261,-80133.589091
193.363572,1628.453072,1628.453072,-81972.218286
193.366159,4885.359217,4441.235652,-75077.358804
193.368745,740.205942,1480.411884,-78448.178995
193.371332,-1776.494261,-3108.864956,-80746.465489
193.373919,296.082377,1776.494261,-76149.892501
193.376506,1924.535449,4293.194464,-77835.302597
193.379093,444.123565,3849.070898,-78907.836294
193.381679,6661.853478,1924.535449,-78141.740796
193.384266,-2812.782580,6069.688724,-76762.768900
193.386853,-1332.370696,12139.377449,-77682.083497
193.389440,1332.370696,2664.741391,-79673.931792
193.392027,-888.247130,296.082377,-77375.645298
193.394613,740.205942,-2516.700203,-77682.083497
193.397200,-2960.823768,-2516.700203,-79520.712692
193.399787,5181.441594,3997.112087,-75690.235202
193.402374,-1924.535449,-1184.329507,-78907.836294
193.404961,2072.576638,6513.812290,-76456.330700
193.407547,-2220.617826,4589.276840,-77528.864398
193.410134,2812.782580,-592.164754,-78601.398095
193.412721,1628.453072,-4737.318029,-76915.987999
193.415308,-3404.947333,-3997.112087,-79827.150892
193.417895,3108.864956,-18505.148550,-79367.493593
193.420483,2516.700203,-9474.636058,-75537.016103
193.423072,-1924.535449,-1332.370696,-78294.959896
193.425660,1776.494261,-2664.741391,-79061.055394
193.428248,2664.741391,-3701.029710,-78141.740796
193.430837,-1480.411884,4589.276840,-77682.083497
193.433425,-4441.235652,2368.659014,-77988.521696
193.436014,2664.741391,-12139.377449,-78754.617194
193.438602,5773.606348,-15396.283594,-76609.549800
193.441191,-2664.741391,-1332.370696,-79061.055394
193.443779,1776.494261,1480.411884,-81206.122788
193.446368,6957.935855,-4145.153275,-76456.330700
193.448956,2220.617826,-4293.194464,-75230.577904
193.451545,-1332.370696,-6069.688724,-82278.656485
193.454133,7105.977043,1924.535449,-77375.645298
193.456722,2220.617826,-7254.018232,-78601.398095
193.459310,-1184.329507,-4885.359217,-79673.931792
193.461898,-2220.617826,-3256.906145,-79827.150892
193.464487,2368.659014,-6069.688724,-77988.521696
193.467075,0.000000,-5329.482782,-73545.167808
193.469664,-1628.453072,-7698.141797,-78754.617194
193.472252,592.164754,-2960.823768,-78294.959896
193.474841,3108.864956,-5625.565159,-75843.454302
193.477429,444.123565,-5477.523971,-77682.083497
193.480018,-2516.700203,-1332.370696,-78294.959896
193.482606,2664.741391,-6365.771101,-79061.055394
193.485195,740.205942,-4293.194464,-76915.987999
193.487783,296.082377,-1332.370696,-78448.178995
193.490372,-1480.411884,-1332.370696,-80133.589091
193.492960,-296.082377,6513.812290,-75383.797003
193.495548,1036.288319,7105.977043,-77835.302597
193.498137,3701.029710,1776.494261,-79520.712692
193.500725,1036.288319,1924.535449,-76456.330700
193.503314,0.000000,6957.935855,-76149.892501
193.505902,-2072.576638,-2664.741391,-80286.808190
193.508491,592.164754,-2812.782580,-75230.577904
193.511079,888.247130,3552.988522,-77682.083497
193.513668,296.082377,3404.947333,-78294.959896
193.516256,2812.782580,7402.059420,-76303.111601
193.518845,1184.329507,8290.306550,-78294.959896
193.521433,1924.535449,740.205942,-74158.044206
193.524020,1184.329507,444.123565,-76609.549800
193.526607,1332.370696,-1480.411884,-76456.330700
193.529194,2220.617826,888.247130,-77682.083497
193.531781,5477.523971,592.164754,-78601.398095
193.534368,1036.288319,-4145.153275,-77988.521696
193.536955,-1628.453072,4145.153275,-76762.768900
193.539542,3849.070898,4145.153275,-78448.178995
193.542129,3256.906145,2516.700203,-75383.797003
193.544716,-1184.329507,7402.059420,-78448.178995
193.547303,3108.864956,8882.471304,-79520.712692
193.549890,6513.812290,1480.411884,-77682.083497
193.552477,-5477.523971,12879.583391,-77069.207099
193.555064,2812.782580,-1924.535449,-78907.836294
193.557651,3404.947333,-6217.729913,-78294.959896
193.560238,-1776.494261,888.247130,-76762.768900
193.562825,-2072.576638,1480.411884,-79367.493593
193.565412,-1628.453072,1036.288319,-79214.274493
193.567999,8438.347739,5477.523971,-77222.426198
193.570586,2220.617826,-592.164754,-77835.302597
193.573173,-148.041188,3256.906145,-75996.673402
193.575760,-3849.070898,-1036.288319,-78141.740796
193.578347,3404.947333,-12583.501014,-77988.521696
193.580934,1480.411884,-15248.242405,-78448.178995
193.583521,2812.782580,-5773.606348,-77682.083497
193.586108,-1776.494261,-3997.112087,-78294.959896
193.588695,7254.018232,148.041188,-77528.864398
193.591282,1776.494261,-3108.864956,-81206.122788
193.593869,888.247130,1036.288319,-77682.083497
193.596456,-2516.700203,2664.741391,-76609.549800
193.599043,2812.782580,-10510.924376,-79061.055394
193.601630,0.000000,-7402.059420,-77069.207099
193.604217,740.205942,-11399.171507,-80440.027290
193.606805,-740.205942,888.247130,-77835.302597
193.609392,2664.741391,3256.906145,-77222.426198
193.611979,-1628.453072,-7846.182985,-79367.493593
193.614566,2516.700203,-3849.070898,-76762.768900
193.617153,-3108.864956,888.247130,-75690.235202
193.619740,444.123565,-888.247130,-78294.959896
193.622327,3997.112087,-10214.842000,-78754.617194
193.624914,-1480.411884,-7550.100608,-76149.892501
193.627499,1480.411884,-8142.265362,-75690.235202
193.630085,444.123565,1332.370696,-76609.549800
193.632670,4885.359217,-4737.318029,-78294.959896
193.635256,-4293.194464,-8586.388927,-78294.959896
193.637841,-888.247130,-1332.370696,-78294.959896
193.640427,-1036.288319,-296.082377,-79673.931792
193.643013,6513.812290,-8586.388927,-76915.987999
193.645598,148.041188,-296.082377,-76609.549800
193.648184,592.164754,-5625.565159,-79827.150892
193.650769,-3552.988522,-1924.535449,-77682.083497
193.653355,4441.235652,10066.800811,-76149.892501
193.655940,-148.041188,4441.235652,-79980.369991
193.658526,-1480.411884,6513.812290,-78448.178995
193.661112,-4885.359217,3997.112087,-77375.645298
193.663697,4885.359217,1776.494261,-77375.645298
193.666283,-296.082377,1776.494261,-77835.302597
193.668868,-1036.288319,740.205942,-77069.207099
193.671454,888.247130,-4145.153275,-79827.150892
193.674039,740.205942,3256.906145,-76609.549800
193.676625,3404.947333,13175.665768,-77375.645298
193.679211,1480.411884,3997.112087,-78907.836294
193.681796,1924.535449,5477.523971,-75077.358804
193.684382,0.000000,1776.494261,-80899.684589
193.686967,2812.782580,-740.205942,-76303.111601
193.689553,-3849.070898,3256.906145,-74464.482406
193.692138,-1480.411884,2220.617826,-79214.274493
193.694724,2072.576638,-5921.647536,-78907.836294
193.697310,1184.329507,1628.453072,-76762.768900
193.699895,-2664.741391,10955.047942,-78294.959896
193.702481,2516.700203,7550.100608,-79214.274493
193.705066,4589.276840,1628.453072,-78294.959896
193.707652,6957.935855,5921.647536,-77069.207099
193.710237,-1924.535449,15396.283594,-77682.083497
193.712823,-3256.906145,1924.535449,-79980.369991
193.715408,3256.906145,-592.164754,-77069.207099
193.717994,-1480.411884,-1036.288319,-77835.302597
193.720580,-3108.864956,-1036.288319,-77682.083497
193.723165,-1924.535449,5033.400406,-78141.740796
193.725751,-296.082377,2516.700203,-77835.302597
193.728336,3108.864956,-1924.535449,-77988.521696
193.730921,296.082377,-296.082377,-78448.178995
193.733506,-2960.823768,3997.112087,-77682.083497
193.736090,-888.247130,-5181.441594,-77375.645298
193.738675,1776.494261,-14952.160028,-77528.864398
193.741259,-1036.288319,-9474.636058,-76915.987999
193.743844,-1480.411884,-6513.812290,-78601.398095
193.746429,4293.194464,-2960.823768,-77375.645298
193.749013,-1776.494261,0.000000,-78601.398095
193.751598,2516.700203,-592.164754,-77069.207099
193.754183,-2516.700203,-2960.823768,-79367.493593
193.756767,0.000000,-740.205942,-77682.083497
193.759352,3997.112087,-6661.853478,-77682.083497
193.761936,-1184.329507,-12435.459826,-76609.549800
193.764521,888.247130,-7846.182985,-76149.892501
193.767106,296.082377,4145.153275,-79980.369991
193.769690,3701.029710,1480.411884,-80133.589091
193.772275,6809.894666,-7846.182985,-80440.027290
193.774859,148.041188,-444.123565,-76609.549800
193.777444,-3997.112087,-444.123565,-77528.864398
193.780029,2368.659014,-7105.977043,-81052.903688
193.782613,1480.411884,-7846.182985,-78141.740796
193.785198,-1332.370696,-9622.677246,-76609.549800
193.787783,-592.164754,-6069.688724,-79214.274493
193.790367,3552.988522,-1628.453072,-75996.673402
193.792952,-444.123565,-5477.523971,-78448.178995
193.795536,-2368.659014,-9474.636058,-78601.398095
193.798121,-888.247130,-592.164754,-77375.645298
193.800706,1480.411884,-4441.235652,-77988.521696
193.803290,3256.906145,-1628.453072,-76149.892501
193.805875,-3552.988522,-2072.576638,-79827.150892
193.808460,-2812.782580,-1628.453072,-79367.493593
193.811044,2072.576638,7105.977043,-76303.111601
193.813629,1036.288319,11843.295072,-77682.083497
193.816213,1036.288319,1036.288319,-79367.493593
193.818798,740.205942,-2072.576638,-75690.235202
193.821383,-3701.029710,5773.606348,-77069.207099
193.823967,-888.247130,-1480.411884,-78907.836294
193.826552,592.164754,-444.123565,-75383.797003
193.829136,1332.370696,148.041188,-78141.740796
193.831721,592.164754,2072.576638,-79061.055394
193.834246,1480.411884,11399.171507,-78141.740796
193.836771,5181.441594,10807.006753,-79367.493593
193.839296,296.082377,3701.029710,-78448.178995
193.841821,-2516.700203,-1184.329507,-78141.740796
193.844346,888.247130,1776.494261,-78754.617194
193.846871,592.164754,5773.606348,-78141.740796
193.849396,-1036.288319,-4441.235652,-78141.740796
193.851921,-6661.853478,740.205942,-77222.426198
193.854446,2960.823768,6217.729913,-78141.740796
193.856971,2960.823768,4145.153275,-76303.111601
193.859496,-4441.235652,7402.059420,-76303.111601
193.862021,296.082377,5773.606348,-81818.999186
193.864546,-1628.453072,5625.565159,-79367.493593
193.867071,-888.247130,8882.471304,-76609.549800
193.869596,6217.729913,0.000000,-79214.274493
193.872121,2368.659014,-2960.823768,-79520.712692
193.874646,1332.370696,2220.617826,-76609.549800
193.877171,2960.823768,-2220.617826,-79367.493593
193.879696,-592.164754,6069.688724,-76303.111601
193.882221,0.000000,5181.441594,-78601.398095
193.884746,1924.535449,-5329.482782,-77528.864398
193.887271,1924.535449,-9770.718434,-75690.235202
193.889796,4441.235652,-1184.329507,-75537.016103
193.892321,-3108.864956,-10807.006753,-78907.836294
193.894846,1776.494261,-12583.501014,-75690.235202
193.897371,1628.453072,-4145.153275,-79061.055394
193.899896,5477.523971,-1628.453072,-77528.864398
193.902421,-3701.029710,-3552.988522,-77682.083497
193.904946,4293.194464,2812.782580,-75230.577904
193.907471,2516.700203,-5329.482782,-79367.493593
193.909996,1036.288319,-7994.224174,-77988.521696
193.912521,-3108.864956,-3997.112087,-77375.645298
193.915046,1184.329507,-8734.430116,-79367.493593
193.917571,5329.482782,-296.082377,-77528.864398
193.920096,1184.329507,-3108.864956,-79061.055394
193.922621,1628.453072,-1628.453072,-77682.083497
193.925146,-740.205942,-2368.659014,-79980.369991
193.927671,7254.018232,-4589.276840,-76456.330700
193.930196,-4737.318029,-4145.153275,-78601.398095
193.932720,-2664.741391,-3552.988522,-77682.083497
193.935258,4293.194464,-8734.430116,-79214.274493
193.937795,444.123565,-3552.988522,-77835.302597
193.940332,592.164754,-1776.494261,-76609.549800
193.942869,-296.082377,-8734.430116,-79214.274493
193.945406,-592.164754,-6365.771101,-77375.645298
193.947943,0.000000,-3849.070898,-77988.521696
193.950480,3404.947333,-8290.306550,-77835.302597
193.953018,-4737.318029,-2220.617826,-76915.987999
193.955555,-1776.494261,2220.617826,-78907.836294
193.958092,-1776.494261,-2812.782580,-79214.274493
193.960629,3108.864956,4737.318029,-74464.482406
193.963166,-1776.494261,12139.377449,-78754.617194
193.965703,1036.288319,3404.947333,-77988.521696
193.968240,1924.535449,1332.370696,-76915.987999
193.970777,-1184.329507,3701.029710,-78754.617194
193.973315,-2220.617826,-444.123565,-76915.987999
193.975852,-5625.565159,-444.123565,-76456.330700
193.978389,3108.864956,592.164754,-78907.836294
193.980926,2220.617826,3404.947333,-78294.959896
193.983463,3404.947333,8882.471304,-76456.330700
193.986000,-740.205942,8586.388927,-81052.903688
193.988537,888.247130,6809.894666,-77375.645298
193.991074,4293.194464,-5773.606348,-83197.971083
193.993612,5477.523971,2960.823768,-77375.645298
193.996149,148.041188,4293.194464,-75996.673402
193.998686,-2812.782580,2368.659014,-77069.207099
194.001223,-6217.729913,-2664.741391,-80593.246390
194.003760,3256.906145,3997.112087,-75077.358804
194.006297,-3552.988522,11547.212695,-77988.521696
194.008834,444.123565,3701.029710,-77069.207099
194.011371,2812.782580,4589.276840,-77222.426198
194.013909,-2072.576638,7846.182985,-79367.493593
194.016446,-1776.494261,4441.235652,-77069.207099
194.018983,-2072.576638,296.082377,-77988.521696
194.021520,1776.494261,-296.082377,-77682.083497
194.024057,296.082377,-1628.453072,-77528.864398
194.026594,592.164754,1776.494261,-76456.330700
194.029131,3552.988522,7550.100608,-78601.398095
194.031668,-3256.906145,1480.411884,-78907.836294
194.034206,1036.288319,-3256.906145,-78754.617194
194.036753,-1036.288319,-8734.430116,-78754.617194
194.039300,2960.823768,-3552.988522,-77069.207099
194.041847,-3997.112087,-9770.718434,-78601.398095
194.044394,5181.441594,-10066.800811,-76303.111601
194.046941,-148.041188,-2812.782580,-77528.864398
194.049488,2516.700203,-444.123565,-77375.645298
194.052036,0.000000,-888.247130,-78294.959896
194.054583,3997.112087,-740.205942,-75996.673402
194.057130,-592.164754,-5329.482782,-77069.207099
194.059677,1184.329507,-6957.935855,-77682.083497
194.062224,-1480.411884,-5329.482782,-77835.302597
194.064771,2664.741391,-3701.029710,-77069.207099
194.067318,1332.370696,1332.370696,-80133.589091
194.069865,1332.370696,-3404.947333,-78601.398095
194.072413,-1480.411884,-5477.523971,-78754.617194
194.074960,1332.370696,-2072.576638,-76456.330700
194.077507,1332.370696,-1628.453072,-77375.645298
194.080054,888.247130,-9770.718434,-79980.369991
194.082601,-444.123565,-7846.182985,-77682.083497
194.085148,-1776.494261,-7402.059420,-77682.083497
194.087695,5033.400406,-2960.823768,-77375.645298
194.090242,2220.617826,-4441.235652,-77528.864398
194.092790,-296.082377,-7105.977043,-77682.083497
194.095337,-592.164754,-6365.771101,-79520.712692
194.097884,5181.441594,-6217.729913,-76149.892501
194.100431,740.205942,-296.082377,-77682.083497
194.102978,-1184.329507,-296.082377,-77375.645298
194.105525,296.082377,-1480.411884,-77528.864398
194.108072,5921.647536,3108.864956,-77222.426198
194.110619,-1184.329507,10362.883188,-76915.987999
194.113167,0.000000,7254.018232,-78141.740796
194.115714,-1628.453072,-1776.494261,-78448.178995
194.118261,2072.576638,4293.194464,-77069.207099
194.120808,-888.247130,-1332.370696,-79520.712692
194.123355,-592.164754,2072.576638,-75383.797003
194.125902,148.041188,1480.411884,-78601.398095
194.128449,2812.782580,2960.823768,-79980.369991
194.130996,1628.453072,5477.523971,-79673.931792
194.133544,3256.906145,11399.171507,-77375.645298
194.136091,-4145.153275,2960.823768,-77682.083497
194.138644,148.041188,-1332.370696,-79673.931792
194.141198,6661.853478,-2664.741391,-79061.055394
194.143751,-592.164754,8290.306550,-75230.577904
194.146305,-7402.059420,5625.565159,-80440.027290
194.148859,4589.276840,-1924.535449,-79061.055394
194.151412,6661.853478,-2368.659014,-74158.044206
194.153966,-6809.894666,9178.553681,-74617.701505
194.156519,-1480.411884,12139.377449,-79367.493593
194.159073,2812.782580,-1628.453072,-80286.808190
194.161626,1036.288319,5033.400406,-77528.864398
194.164180,444.123565,3701.029710,-78754.617194
194.166734,-2368.659014,-444.123565,-76762.768900
194.169287,1628.453072,2368.659014,-75077.358804
194.171841,4145.153275,-2516.700203,-78907.836294
194.174394,-4293.194464,2812.782580,-77988.521696
194.176948,740.205942,4589.276840,-75537.016103
194.179501,2072.576638,148.041188,-78294.959896
194.182055,-2516.700203,-9770.718434,-76456.330700
194.184609,-592.164754,-4589.276840,-77988.521696
194.187162,1776.494261,-11103.089130,-79214.274493
194.189716,1184.329507,-6069.688724,-74617.701505
194.192269,-740.205942,-4885.359217,-79980.369991
194.194823,0.000000,-3404.947333,-79367.493593
194.197376,1480.411884,-4885.359217,-77988.521696
194.199930,2664.741391,296.082377,-76762.768900
194.202483,1924.535449,-444.123565,-78754.617194
194.205037,296.082377,-11103.089130,-76762.768900
194.207591,-5477.523971,-8142.265362,-78601.398095
194.210144,2072.576638,-3404.947333,-77835.302597
194.212698,2664.741391,4885.359217,-77835.302597
194.215251,3997.112087,-4589.276840,-76456.330700
194.217805,-4737.318029,-6217.729913,-78294.959896
194.220358,296.082377,-1184.329507,-77069.207099
194.222912,4293.194464,-3552.988522,-77222.426198
194.225466,-740.205942,-7994.224174,-76915.987999
194.228019,-3552.988522,-9178.553681,-78754.617194
194.230573,3849.070898,-8882.471304,-77682.083497
194.233126,2812.782580,-4885.359217,-74924.139704
194.235680,888.247130,3108.864956,-77682.083497
194.238233,444.123565,-11547.212695,-79520.712692
194.240792,444.123565,-6809.894666,-76762.768900
194.243352,1184.329507,3404.947333,-76149.892501
194.245911,6661.853478,-2812.782580,-79061.055394
194.248470,-3108.864956,-2368.659014,-77375.645298
194.251029,0.000000,5329.482782,-77682.083497
194.253588,2960.823768,1480.411884,-79980.369991
194.256147,-1184.329507,9474.636058,-75690.235202
194.258706,4145.153275,9474.636058,-77835.302597
194.261265,3256.906145,-1332.370696,-82738.313784
194.263824,1332.370696,-2960.823768,-75843.454302
194.266383,0.000000,3404.947333,-78141.740796
194.268942,2960.823768,-1184.329507,-80133.589091
194.271501,3552.988522,6661.853478,-75690.235202
194.274060,-1480.411884,2664.741391,-77835.302597
194.276619,3849.070898,4589.276840,-75996.673402
194.279178,-2960.823768,14508.036463,-75690.235202
194.281737,740.205942,-592.164754,-77222.426198
194.284296,592.164754,-5181.441594,-77375.645298
194.286855,-1776.494261,2368.659014,-74617.701505
194.289414,-2812.782580,3552.988522,-78141.740796
194.291973,4737.318029,1924.535449,-77069.207099
194.294532,1332.370696,888.247130,-76915.987999
194.297091,1480.411884,7698.141797,-75383.797003
194.299650,-3552.988522,12287.418637,-79061.055394
194.302210,6217.729913,5921.647536,-76609.549800
194.304769,740.205942,2960.823768,-78601.398095
194.307328,2516.700203,-1480.411884,-78907.836294
194.309887,1332.370696,3256.906145,-78907.836294
194.312446,2664.741391,4885.359217,-77528.864398
194.315005,3256.906145,-740.205942,-77528.864398
194.317564,7254.018232,-1480.411884,-77988.521696
194.320123,-888.247130,296.082377,-77069.207099
194.322686,592.164754,3997.112087,-77988.521696
194.325250,2960.823768,-8438.347739,-77835.302597
194.327813,4589.276840,-7550.100608,-76915.987999
194.330376,-1184.329507,-12879.583391,-79980.369991
194.332940,3108.864956,-7698.141797,-75537.016103
194.335503,2220.617826,-444.123565,-78141.740796
194.338066,5033.400406,-3108.864956,-79673.931792
194.340630,-1036.288319,-5921.647536,-78601.398095
194.343193,444.123565,-1184.329507,-76149.892501
194.345757,3997.112087,592.164754,-78907.836294
194.348320,0.000000,-10658.965565,-78141.740796
194.350883,-740.205942,-6365.771101,-77988.521696
194.353447,3552.988522,-6217.729913,-78601.398095
194.356010,592.164754,4737.318029,-76609.549800
194.358573,4145.153275,-1924.535449,-77375.645298
194.361137,4589.276840,-6365.771101,-78754.617194
194.363700,-2664.741391,-3997.112087,-79214.274493
194.366264,740.205942,-2664.741391,-75690.235202
194.368827,1776.494261,-10066.800811,-79061.055394
194.371390,2220.617826,-9030.512492,-77069.207099
194.373954,888.247130,-5329.482782,-79520.712692
194.376517,3701.029710,-5181.441594,-77528.864398
194.379080,-2960.823768,-1036.288319,-75996.673402
194.381644,1036.288319,-3997.112087,-79214.274493
194.384207,2516.700203,-12287.418637,-80593.246390
194.386771,-1036.288319,3108.864956,-74924.139704
194.389334,3552.988522,-1036.288319,-78601.398095
194.391897,-2072.576638,-1184.329507,-79061.055394
194.394461,2516.700203,7550.100608,-76762.768900
194.397024,5477.523971,6217.729913,-79827.150892
194.399588,444.123565,4885.359217,-77528.864398
194.402151,2664.741391,9770.718434,-76456.330700
194.404714,-592.164754,3552.988522,-79061.055394
194.407278,1480.411884,-4145.153275,-78601.398095
194.409841,2220.617826,3256.906145,-77222.426198
194.412404,2812.782580,-1776.494261,-78907.836294
194.414968,2072.576638,6809.894666,-78141.740796
194.417531,740.205942,4737.318029,-80593.246390
194.420095,5477.523971,7105.977043,-76609.549800
194.422658,1776.494261,592.164754,-77222.426198
194.425224,592.164754,-2516.700203,-75843.454302
194.427790,-296.082377,148.041188,-77222.426198
194.430356,888.247130,2368.659014,-80286.808190
194.432922,-444.123565,3108.864956,-77988.521696
194.435488,-1776.494261,3997.112087,-77682.083497
194.438054,-2960.823768,10362.883188,-79061.055394
194.440620,5181.441594,3404.947333,-77222.426198
194.443186,-1184.329507,8586.388927,-77682.083497
194.445752,-3108.864956,7698.141797,-76762.768900
194.448318,2960.823768,2220.617826,-78448.178995
194.450884,3256.906145,-1480.411884,-76609.549800
194.453450,-3552.988522,6365.771101,-76149.892501
194.456016,-3256.906145,148.041188,-81052.903688
194.458582,7994.224174,-444.123565,-74770.920605
194.461148,1036.288319,1332.370696,-78141.740796
194.463714,-444.123565,1332.370696,-78907.836294
194.466280,1480.411884,-5181.441594,-75230.577904
194.468846,1332.370696,-7698.141797,-78294.959896
194.471412,4737.318029,-12435.459826,-80593.246390
194.473977,3108.864956,-9030.512492,-76915.987999
194.476543,0.000000,296.082377,-77682.083497
194.479109,5033.400406,-3849.070898,-79827.150892
194.481675,592.164754,-5773.606348,-77682.083497
194.484241,-296.082377,592.164754,-77528.864398
194.486807,1184.329507,-1924.535449,-77988.521696
194.489373,3701.029710,-7105.977043,-75383.797003
194.491939,296.082377,-11695.253884,-76149.892501
194.494505,-296.082377,-4293.194464,-77069.207099
194.497071,-5477.523971,5477.523971,-78448.178995
194.499637,4737.318029,-5329.482782,-78448.178995
194.502203,1628.453072,-5477.523971,-77222.426198
194.504769,-5921.647536,-1036.288319,-78754.617194
194.507335,-296.082377,-3849.070898,-79214.274493
194.509901,888.247130,-7994.224174,-77988.521696
194.512467,1776.494261,-12139.377449,-77069.207099
194.515033,444.123565,-7994.224174,-77835.302597
194.517599,-1924.535449,-2368.659014,-77682.083497
194.520165,0.000000,-5329.482782,-77988.521696
194.522731,444.123565,-8290.306550,-77528.864398
194.525297,0.000000,-888.247130,-76456.330700
194.527864,1184.329507,592.164754,-79673.931792
194.530431,-1036.288319,-2516.700203,-76303.111601
194.532998,296.082377,4441.235652,-77375.645298
194.535565,-3701.029710,2812.782580,-79520.712692
194.538133,1184.329507,6217.729913,-76149.892501
194.540700,1332.370696,6661.853478,-78294.959896
194.543267,4293.194464,740.205942,-77528.864398
194.545834,592.164754,3108.864956,-78141.740796
194.548402,-2960.823768,-1628.453072,-78448.178995
194.550969,1776.494261,888.247130,-75843.454302
194.553536,-1184.329507,592.164754,-78907.836294
194.556103,4145.153275,7550.100608,-75690.235202
194.558671,-3997.112087,9918.759623,-80133.589091
194.561238,2220.617826,7994.224174,-79520.712692
194.563805,1332.370696,0.000000,-78294.959896
194.566372,5477.523971,-2664.741391,-77222.426198
194.568939,148.041188,4737.318029,-76609.549800
194.571507,-1036.288319,3997.112087,-79061.055394
194.574074,4293.194464,2072.576638,-76915.987999
194.576641,0.000000,3256.906145,-75537.016103
194.579208,740.205942,10955.047942,-76303.111601
194.581776,-444.123565,12583.501014,-80286.808190
194.584343,-148.041188,-740.205942,-78907.836294
194.586910,5477.523971,3997.112087,-77682.083497
194.589477,-444.123565,3108.864956,-79520.712692
194.592045,888.247130,3404.947333,-75843.454302
194.594612,2220.617826,-148.041188,-78754.617194
194.597179,7846.182985,-444.123565,-75537.016103
194.599746,888.247130,888.247130,-78754.617194
194.602314,-148.041188,1332.370696,-79061.055394
194.604881,4737.318029,-2812.782580,-76609.549800
194.607448,1628.453072,-8882.471304,-79520.712692
194.610015,1628.453072,-12583.501014,-79520.712692
194.612583,888.247130,-9178.553681,-77222.426198
194.615150,-444.123565,-2516.700203,-77988.521696
194.617717,592.164754,-2960.823768,-78907.836294
194.620284,-444.123565,-3997.112087,-79061.055394
194.622851,1924.535449,-5329.482782,-77682.083497
194.625419,-148.041188,592.164754,-78601.398095
194.627986,-2516.700203,-6069.688724,-76915.987999
194.630508,296.082377,-8438.347739,-76149.892501
194.633030,-592.164754,-5181.441594,-78907.836294
194.635552,-3701.029710,2960.823768,-77222.426198
194.638074,3997.112087,-2664.741391,-78141.740796
194.640596,2368.659014,-9918.759623,-76762.768900
194.643117,-2516.700203,-2220.617826,-75537.016103
194.645639,1628.453072,-5033.400406,-81052.903688
194.648161,2812.782580,-7698.141797,-77988.521696
194.650683,1036.288319,-6809.894666,-76456.330700
194.653205,592.164754,-6217.729913,-79980.369991
194.655727,1924.535449,-10955.047942,-79214.274493
194.658249,2220.617826,-296.082377,-76456.330700
194.660771,-444.123565,-5773.606348,-80440.027290
194.663293,888.247130,-2368.659014,-76762.768900
194.665815,3108.864956,2960.823768,-78754.617194
194.668337,-1628.453072,1036.288319,-78294.959896
194.670859,1924.535449,1332.370696,-75843.454302
194.673381,1036.288319,8290.306550,-78294.959896
194.675903,2072.576638,1628.453072,-78601.398095
194.678424,148.041188,2072.576638,-76915.987999
194.680946,-1776.494261,7402.059420,-76915.987999
194.683468,1480.411884,-4441.235652,-78907.836294
194.685990,-148.041188,1924.535449,-76609.549800
194.688512,-3701.029710,1628.453072,-78754.617194
194.691034,7105.977043,5181.441594,-77835.302597
194.693556,-4441.235652,7550.100608,-79673.931792
194.696078,740.205942,10807.006753,-78448.178995
194.698600,-1480.411884,-1036.288319,-81206.122788
194.701122,8882.471304,-2812.782580,-76456.330700
194.703644,1332.370696,1332.370696,-75230.577904
194.706166,-7105.977043,7698.141797,-79980.369991
194.708688,2812.782580,3256.906145,-79980.369991
194.711209,8734.430116,1480.411884,-76149.892501
194.713731,-4885.359217,12287.418637,-74464.482406
194.716253,-3849.070898,12583.501014,-77835.302597
194.718775,3256.906145,2368.659014,-78601.398095
194.721297,1184.329507,-1924.535449,-76762.768900
194.723819,4145.153275,4885.359217,-76456.330700
194.726341,-7254.018232,1776.494261,-79367.493593
194.728863,3108.864956,2072.576638,-75690.235202
194.731397,4145.153275,-1332.370696,-79827.150892
194.733931,444.123565,-5329.482782,-77528.864398
194.736465,-296.082377,5773.606348,-78448.178995
194.738999,1480.411884,-5033.400406,-79367.493593
194.741532,3404.947333,-13767.830521,-77222.426198
194.744066,592.164754,-9030.512492,-77835.302597
194.746600,1480.411884,-7698.141797,-78141.740796
194.749134,-592.164754,-1036.288319,-76149.892501
194.751668,3552.988522,-5329.482782,-78601.398095
194.754202,1776.494261,-3849.070898,-79214.274493
194.756736,-296.082377,-3256.906145,-77835.302597
194.759270,-1776.494261,-1036.288319,-77069.207099
194.761804,2812.782580,-5033.400406,-77069.207099
194.764337,740.205942,-11251.130318,-77528.864398
194.766871,0.000000,0.000000,-76915.987999
194.769405,-888.247130,-296.082377,-77988.521696
194.771939,3552.988522,-4441.235652,-77222.426198
194.774473,1184.329507,-6365.771101,-76456.330700
194.777007,0.000000,-6365.771101,-76456.330700
194.779541,-1480.411884,-5477.523971,-79673.931792
194.782075,3701.029710,-8882.471304,-77682.083497
194.784609,2960.823768,-9474.636058,-79061.055394
194.787142,888.247130,-9326.594869,-78448.178995
194.789676,-296.082377,-1628.453072,-77528.864398
194.792210,296.082377,-9030.512492,-79827.150892
194.794744,4441.235652,1184.329507,-76149.892501
194.797278,4589.276840,1924.535449,-80133.589091
194.799812,-1924.535449,-1480.411884,-77988.521696
194.802346,-2368.659014,4737.318029,-77069.207099
194.804880,4885.359217,6809.894666,-78754.617194
194.807414,-740.205942,1480.411884,-79827.150892
194.809947,-3997.112087,4293.194464,-75537.016103
194.812481,-1480.411884,4885.359217,-78448.178995
194.815015,5181.441594,444.123565,-76915.987999
194.817549,-4145.153275,3701.029710,-77222.426198
194.820083,-1628.453072,-592.164754,-79367.493593
194.822617,-1776.494261,4737.318029,-79214.274493
194.825151,4737.318029,592.164754,-76762.768900
194.827685,-2960.823768,11843.295072,-77375.645298
194.830219,-888.247130,5921.647536,-80440.027290
194.832717,2516.700203,-3108.864956,-80746.465489
194.835216,4441.235652,5477.523971,-77222.426198
194.837714,-444.123565,1924.535449,-78448.178995
194.840213,2220.617826,5181.441594,-80286.808190
194.842712,4145.153275,2220.617826,-80286.808190
194.845210,1776.494261,5773.606348,-76762.768900
194.847709,-3552.988522,17616.901420,-77988.521696
194.850207,1480.411884,3849.070898,-79214.274493
194.852706,5773.606348,-2960.823768,-78601.398095
194.855205,-740.205942,3552.988522,-76762.768900
194.857703,-5181.441594,5033.400406,-77682.083497
194.860202,-1332.370696,0.000000,-77528.864398
194.862700,7550.100608,-444.123565,-76762.768900
194.865199,-444.123565,-9474.636058,-78294.959896
194.867698,-888.247130,7550.100608,-77988.521696
194.870196,2220.617826,-6809.894666,-80286.808190
194.872695,5625.565159,-12583.501014,-77222.426198
194.875194,-3108.864956,-7550.100608,-79061.055394
194.877692,2812.782580,-7254.018232,-78601.398095
194.880191,-1036.288319,-2960.823768,-76762.768900
194.882689,3256.906145,-4441.235652,-78448.178995
194.885188,-2516.700203,-4145.153275,-79214.274493
194.887687,888.247130,-5181.441594,-77069.207099
194.890185,1184.329507,-1924.535449,-78294.959896
194.892684,2220.617826,-2664.741391,-77222.426198
194.895182,888.247130,-9326.594869,-79061.055394
194.897681,2072.576638,-4737.318029,-76303.111601
194.900180,-1628.453072,-1628.453072,-76915.987999
194.902678,-1480.411884,-5625.565159,-79367.493593
194.905177,3108.864956,-5329.482782,-76609.549800
194.907675,1628.453072,-6957.935855,-77222.426198
194.910174,-3552.988522,-4145.153275,-79827.150892
194.912673,2516.700203,-12583.501014,-79061.055394
194.915171,6957.935855,-7254.018232,-76303.111601
194.917670,-3552.988522,-7550.100608,-77375.645298
194.920168,-444.123565,-2960.823768,-75843.454302
194.922667,592.164754,-4589.276840,-79520.712692
194.925166,7105.977043,1924.535449,-74924.139704
194.927664,-3256.906145,2516.700203,-79827.150892
194.930163,-2516.700203,6069.688724,-78907.836294
194.932679,3552.988522,-1332.370696,-77835.302597
194.935195,2220.617826,10214.842000,-75996.673402
194.937710,-3552.988522,148.041188,-78448.178995
194.940226,0.000000,-296.082377,-76149.892501
194.942742,-2664.741391,6365.771101,-77988.521696
194.945258,3849.070898,-1628.453072,-77069.207099
194.947774,-592.164754,4441.235652,-77222.426198
194.950290,-2960.823768,2812.782580,-79673.931792
194.952806,7698.141797,3404.947333,-76149.892501
194.955321,-4293.194464,4737.318029,-77528.864398
194.957837,1184.329507,9622.677246,-75996.673402
194.960353,3108.864956,-2664.741391,-80133.589091
194.962869,1628.453072,444.123565,-76456.330700
194.965385,1628.453072,5625.565159,-76303.111601
194.967901,4293.194464,7402.059420,-79980.369991
194.970416,2960.823768,-4589.276840,-79520.712692
194.972932,-5625.565159,10955.047942,-76762.768900
194.975448,-1628.453072,10955.047942,-78601.398095
194.977964,6069.688724,5625.565159,-76303.111601
194.980480,-2072.576638,7846.182985,-78601.398095
194.982996,2220.617826,-1628.453072,-77682.083497
194.985512,-2812.782580,444.123565,-78448.178995
194.988027,6069.688724,5921.647536,-74924.139704
194.990543,-2072.576638,1184.329507,-80133.589091
194.993059,1184.329507,-8290.306550,-79061.055394
194.995575,4589.276840,-1924.535449,-77835.302597
194.998091,-888.247130,1628.453072,-78907.836294
195.000607,-4589.276840,-5625.565159,-78141.740796
195.003123,3849.070898,-14952.160028,-78294.959896
195.005638,148.041188,-7846.182985,-77528.864398
195.008154,1184.329507,-1332.370696,-78141.740796
195.010670,1776.494261,-5329.482782,-76609.549800
195.013186,-888.247130,-3404.947333,-78294.959896
195.015702,444.123565,-5773.606348,-77988.521696
195.018218,-296.082377,-3404.947333,-77375.645298
195.020733,296.082377,-1776.494261,-79367.493593
195.023249,592.164754,-1036.288319,-79061.055394
195.025765,2220.617826,-6217.729913,-79214.274493
195.028281,6661.853478,-5921.647536,-76762.768900
195.030797,-3256.906145,-592.164754,-75230.577904
195.033327,-4737.318029,-1184.329507,-78907.836294
195.035857,11399.171507,-13915.871710,-77682.083497
195.038387,1036.288319,-6957.935855,-76303.111601
195.040917,-7105.977043,-7698.141797,-77835.302597
195.043448,3404.947333,-12139.377449,-79367.493593
195.045978,-4589.276840,-4885.359217,-76149.892501
195.048508,-2960.823768,-3552.988522,-76609.549800
195.051038,-3552.988522,-5181.441594,-80133.589091
195.053568,4737.318029,2072.576638,-77069.207099
195.056098,-1184.329507,2368.659014,-78141.740796
195.058628,-1036.288319,5921.647536,-77835.302597
195.061159,-444.123565,2664.741391,-79673.931792
195.063689,3849.070898,6809.894666,-78448.178995
195.066219,-1184.329507,6661.853478,-78907.836294
195.068749,6217.729913,0.000000,-78294.959896
195.071279,-592.164754,4441.235652,-78294.959896
195.073809,-592.164754,2664.741391,-77222.426198
195.076339,148.041188,296.082377,-77682.083497
195.078870,148.041188,3256.906145,-77682.083497
195.081400,4589.276840,7105.977043,-75843.454302
195.083930,-1184.329507,6661.853478,-79367.493593
195.086460,6365.771101,1036.288319,-77222.426198
195.088990,3404.947333,-5773.606348,-78601.398095
195.091520,-7105.977043,7550.100608,-78448.178995
195.094050,3849.070898,4145.153275,-78448.178995
195.096581,6513.812290,-2812.782580,-78601.398095
195.099111,-2220.617826,7105.977043,-76303.111601
195.101641,-3404.947333,14063.912898,-76915.987999
195.104171,3256.906145,6513.812290,-82431.875585
195.106701,296.082377,2516.700203,-74464.482406
195.109231,296.082377,5477.523971,-76915.987999
195.111761,-6365.771101,-1480.411884,-81972.218286
195.114292,4441.235652,4737.318029,-73698.386908
195.116822,1036.288319,5329.482782,-81052.903688
195.119352,-148.041188,-9918.759623,-79520.712692
195.121882,5181.441594,-4145.153275,-77988.521696
195.124412,-8438.347739,-740.205942,-81359.341888
195.126942,2960.823768,-7698.141797,-74617.701505
195.129472,740.205942,-11251.130318,-80746.465489
195.132003,444.123565,-7550.100608,-76609.549800
195.134543,-5477.523971,-6365.771101,-78907.836294
195.137084,4441.235652,-4589.276840,-77528.864398
195.139625,888.247130,-6069.688724,-77682.083497
195.142166,-1036.288319,-4885.359217,-77835.302597
195.144706,-1036.288319,-4145.153275,-77682.083497
195.147247,0.000000,-1628.453072,-78448.178995
195.149788,444.123565,-4885.359217,-77988.521696
195.152329,1480.411884,-4589.276840,-78294.959896
195.154870,-148.041188,-1628.453072,-80133.589091
195.157410,1628.453072,-7254.018232,-78907.836294
195.159951,1184.329507,-888.247130,-77222.426198
195.162492,-1332.370696,-2960.823768,-78754.617194
195.165033,4145.153275,-17468.860231,-77835.302597
195.167574,-592.164754,-6069.688724,-76762.768900
195.170114,-2220.617826,-11251.130318,-79061.055394
195.172655,3997.112087,-6217.729913,-77069.207099
195.175196,-1628.453072,-5625.565159,-77835.302597
195.177737,1036.288319,-740.205942,-78448.178995
195.180278,3849.070898,1332.370696,-78601.398095
195.182818,0.000000,6069.688724,-76762.768900
195.185359,296.082377,6809.894666,-77375.645298
195.187900,-444.123565,3701.029710,-77835.302597
195.190441,1924.535449,1332.370696,-77682.083497
195.192981,-3701.029710,9918.759623,-77682.083497
195.195522,1332.370696,1628.453072,-76609.549800
195.198063,2960.823768,2072.576638,-77835.302597
195.200604,-1480.411884,2960.823768,-76915.987999
195.203145,888.247130,1184.329507,-76149.892501
195.205685,-4885.359217,4145.153275,-79673.931792
195.208226,5181.441594,6365.771101,-74924.139704
195.210767,2368.659014,5329.482782,-78141.740796
195.213308,-888.247130,-3256.906145,-78448.178995
195.215849,1036.288319,2368.659014,-74464.482406
195.218389,1480.411884,4145.153275,-78754.617194
195.220930,-2516.700203,3108.864956,-78141.740796
195.223471,888.247130,1184.329507,-76303.111601
195.226012,2516.700203,9178.553681,-79214.274493
195.228553,2664.741391,10362.883188,-77222.426198
195.231093,7846.182985,5921.647536,-75690.235202
195.233634,-2368.659014,6661.853478,-79827.150892
195.236184,5181.441594,-1184.329507,-76456.330700
195.238733,2960.823768,2072.576638,-78448.178995
195.241283,1036.288319,6809.894666,-76456.330700
195.243832,5625.565159,-2368.659014,-78448.178995
195.246382,1036.288319,-14952.160028,-77835.302597
195.248931,-1628.453072,1036.288319,-75383.797003
195.251481,740.205942,-3404.947333,-80593.246390
195.254031,2960.823768,-16728.654289,-77682.083497
195.256580,1480.411884,-5477.523971,-74617.701505
195.259130,-148.041188,-5921.647536,-80133.589091
195.261679,1628.453072,-5625.565159,-76915.987999
195.264229,-148.041188,592.164754,-77988.521696
195.266778,2072.576638,-6661.853478,-79520.712692
195.269328,2220.617826,-9474.636058,-77682.083497
195.271877,2812.782580,-296.082377,-77835.302597
195.274427,2072.576638,-2516.700203,-80440.027290
195.276976,5181.441594,-444.123565,-79980.369991
195.279526,3108.864956,-6069.688724,-79214.274493
195.282076,296.082377,-2220.617826,-77375.645298
195.284625,-592.164754,-2812.782580,-79827.150892
195.287175,7105.977043,-11103.089130,-77375.645298
195.289724,-1776.494261,-4293.194464,-77069.207099
195.292274,-888.247130,-13915.871710,-78448.178995
195.294823,1924.535449,-17764.942608,-77069.207099
195.297373,1036.288319,-2664.741391,-75690.235202
195.299922,-1480.411884,-1480.411884,-77528.864398
195.302472,-2960.823768,-6957.935855,-79367.493593
195.305022,3849.070898,7846.182985,-76456.330700
195.307571,1036.288319,1184.329507,-78141.740796
195.310121,148.041188,9770.718434,-75230.577904
195.312670,-1628.453072,9030.512492,-80286.808190
195.315220,3404.947333,-1036.288319,-79214.274493
195.317769,1332.370696,3849.070898,-77069.207099
195.320319,1776.494261,6957.935855,-77528.864398
195.322868,-296.082377,2812.782580,-78601.398095
195.325418,0.000000,2220.617826,-77528.864398
195.327968,5033.400406,-296.082377,-77222.426198
195.330517,-148.041188,5921.647536,-79520.712692
195.333067,-740.205942,9326.594869,-77835.302597
195.335616,1924.535449,0.000000,-78601.398095
195.338173,2220.617826,1924.535449,-75383.797003
195.340730,-2812.782580,-444.123565,-77222.426198
195.343287,2812.782580,3108.864956,-77528.864398
195.345843,-3701.029710,6661.853478,-77835.302597
195.348400,0.000000,2368.659014,-76762.768900
195.350957,4589.276840,9918.759623,-77528.864398
195.353514,-4885.359217,9770.718434,-77835.302597
195.356070,6069.688724,9178.553681,-75996.673402
195.358627,-4441.235652,4441.235652,-81512.560987
195.361184,5181.441594,1924.535449,-74924.139704
195.363741,-148.041188,6217.729913,-77528.864398
195.366298,2072.576638,3404.947333,-78907.836294
195.368854,5773.606348,-11251.130318,-75843.454302
195.371411,1036.288319,-3108.864956,-79214.274493
195.373968,-740.205942,-9030.512492,-77682.083497
195.376525,2664.741391,592.164754,-77375.645298
195.379082,1332.370696,-8438.347739,-78907.836294
195.381638,2664.741391,-11103.089130,-76149.892501
195.384195,-1036.288319,-5329.482782,-78601.398095
195.386752,1628.453072,-1184.329507,-78601.398095
195.389309,2812.782580,-5773.606348,-77835.302597
195.391865,2368.659014,-2664.741391,-78294.959896
195.394422,-1036.288319,-6365.771101,-77988.521696
195.396979,2072.576638,-6217.729913,-77069.207099
195.399536,5181.441594,1332.370696,-77222.426198
195.402093,0.000000,-4145.153275,-79520.712692
195.404649,-2664.741391,-444.123565,-77835.302597
195.407206,6069.688724,-8882.471304,-78141.740796
195.409763,5921.647536,-5033.400406,-78294.959896
195.412320,1628.453072,-2368.659014,-76609.549800
195.414877,-2072.576638,-15100.201217,-79367.493593
195.417433,1776.494261,-16728.654289,-79827.150892
195.419990,-1184.329507,-7105.977043,-76762.768900
195.422547,-3552.988522,-5625.565159,-77682.083497
195.425104,444.123565,-1036.288319,-77835.302597
195.427661,4293.194464,148.041188,-78907.836294
195.430217,-3552.988522,-2368.659014,-79520.712692
195.432774,-2664.741391,15248.242405,-76762.768900
195.435331,-296.082377,7254.018232,-78448.178995
195.437888,888.247130,-2220.617826,-77682.083497
195.440449,2516.700203,6661.853478,-77988.521696
195.443011,2664.741391,-1184.329507,-79520.712692
195.445573,1480.411884,8882.471304,-76303.111601
195.448135,-1480.411884,1776.494261,-79061.055394
195.450696,3997.112087,-3256.906145,-77835.302597
195.453258,-1332.370696,5773.606348,-77375.645298
195.455820,4145.153275,11251.130318,-77069.207099
195.458381,-296.082377,4589.276840,-81818.999186
195.460943,2960.823768,-4737.318029,-79214.274493
195.463505,-2072.576638,2516.700203,-77222.426198
195.466066,-3552.988522,5477.523971,-78907.836294
195.468628,-1924.535449,3108.864956,-77222.426198
195.471190,3404.947333,2516.700203,-76149.892501
195.473752,-3849.070898,6661.853478,-79520.712692
195.476313,-1036.288319,13619.789333,-78754.617194
195.478875,-2220.617826,9326.594869,-77375.645298
195.481437,2516.700203,5329.482782,-77528.864398
195.483998,-888.247130,1184.329507,-78754.617194
195.486560,1924.535449,3552.988522,-76915.987999
195.489122,444.123565,2960.823768,-77988.521696
195.491684,1776.494261,-5329.482782,-77988.521696
195.494245,4589.276840,-7994.224174,-77069.207099
195.496807,740.205942,-8290.306550,-78754.617194
195.499369,-296.082377,-444.123565,-76149.892501
195.501930,592.164754,-6809.894666,-79214.274493
195.504492,5921.647536,-11695.253884,-78907.836294
195.507054,1480.411884,-4441.235652,-78141.740796
195.509616,888.247130,-3997.112087,-79061.055394
195.512177,2368.659014,-4737.318029,-77682.083497
195.514739,0.000000,-3552.988522,-78601.398095
195.517301,1480.411884,-7698.141797,-77682.083497
195.519862,148.041188,-4293.194464,-79061.055394
195.522424,1924.535449,-148.041188,-76915.987999
195.524986,1036.288319,-4737.318029,-78448.178995
195.527547,1036.288319,-6217.729913,-77682.083497
195.530109,-2220.617826,-6069.688724,-79367.493593
195.532671,2812.782580,-4737.318029,-78294.959896
195.535233,296.082377,-2960.823768,-77069.207099
195.537794,444.123565,-17468.860231,-78907.836294
195.540356,888.247130,-13323.706956,-78601.398095
195.542922,-1332.370696,-7550.100608,-76762.768900
195.545488,3552.988522,-1184.329507,-75690.235202
195.548054,1332.370696,-1332.370696,-79367.493593
195.550620,740.205942,2664.741391,-75996.673402
195.553186,-3997.112087,8586.388927,-80440.027290
195.555753,1480.411884,8586.388927,-75077.358804
195.558319,888.247130,7846.182985,-76915.987999
195.560885,1776.494261,-2368.659014,-80593.246390
195.563451,-444.123565,1332.370696,-76303.111601
195.566017,-2812.782580,5921.647536,-78294.959896
195.568583,2812.782580,8438.347739,-79367.493593
195.571149,1628.453072,-3849.070898,-78141.740796
195.573715,4885.359217,4589.276840,-75537.016103
195.576281,-2072.576638,7846.182985,-79367.493593
195.578847,3108.864956,4885.359217,-75843.454302
195.581413,-2368.659014,1184.329507,-77988.521696
195.583979,-888.247130,888.247130,-76609.549800
195.586546,4293.194464,2516.700203,-76762.768900
195.589112,148.041188,6069.688724,-75383.797003
195.591678,1480.411884,7105.977043,-75843.454302
195.594244,148.041188,4589.276840,-80286.808190
195.596810,4145.153275,10214.842000,-76915.987999
195.599376,4145.153275,9178.553681,-76149.892501
195.601942,1480.411884,6069.688724,-79214.274493
195.604508,-740.205942,2072.576638,-78448.178995
195.607074,2664.741391,3701.029710,-77375.645298
195.609640,3701.029710,0.000000,-77528.864398
195.612206,-1480.411884,-5181.441594,-76915.987999
195.614772,740.205942,-4441.235652,-78141.740796
195.617338,1332.370696,-9474.636058,-79520.712692
195.619905,2812.782580,-6513.812290,-77222.426198
195.622471,444.123565,-7550.100608,-79061.055394
195.625000,-592.164754,-7254.018232,-77069.207099
195.627530,888.247130,-3108.864956,-77375.645298
195.630060,1480.411884,-6957.935855,-79061.055394
195.632590,740.205942,-1332.370696,-75690.235202
195.635120,0.000000,-2960.823768,-78907.836294
195.637650,6069.688724,-7402.059420,-77528.864398
195.640180,148.041188,-8734.430116,-76456.330700
195.642709,-2368.659014,148.041188,-76762.768900
195.645239,-1480.411884,-2220.617826,-78754.617194
195.647769,4589.276840,-4885.359217,-77375.645298
195.650299,1924.535449,-9474.636058,-77375.645298
195.652829,2220.617826,-1776.494261,-76915.987999
195.655359,-148.041188,-6809.894666,-79367.493593
195.657888,2960.823768,-15396.283594,-77682.083497
195.660418,1480.411884,-12583.501014,-76456.330700
195.662948,-3997.112087,-9326.594869,-78907.836294
195.665478,3849.070898,296.082377,-77069.207099
195.668008,3849.070898,-444.123565,-78141.740796
195.670538,444.123565,3256.906145,-76915.987999
195.673067,-444.123565,7846.182985,-81206.122788
195.675597,1332.370696,10955.047942,-77375.645298
195.678127,148.041188,8438.347739,-76149.892501
195.680657,4293.194464,-888.247130,-80133.589091
195.683187,888.247130,-4737.318029,-78907.836294
195.685717,-2072.576638,9622.677246,-74158.044206
195.688246,-444.123565,3997.112087,-79520.712692
195.690776,5033.400406,444.123565,-76762.768900
195.693306,-1924.535449,5477.523971,-79367.493593
195.695836,2220.617826,6217.729913,-80286.808190
195.698366,3256.906145,8734.430116,-79520.712692
195.700896,1924.535449,1184.329507,-78601.398095
195.703426,-2664.741391,-2220.617826,-77835.302597
195.705955,-444.123565,6217.729913,-78294.959896
195.708485,1776.494261,5921.647536,-77988.521696
195.711015,3997.112087,1776.494261,-77528.864398
195.713545,-3108.864956,9918.759623,-77222.426198
195.716075,-1924.535449,10510.924376,-77835.302597
195.718605,5625.565159,3701.029710,-75843.454302
195.721134,2072.576638,9326.594869,-77375.645298
195.723664,-7550.100608,148.041188,-78601.398095
195.726205,148.041188,1480.411884,-77682.083497
195.728745,4589.276840,148.041188,-80133.589091
195.731286,-444.123565,-11251.130318,-77375.645298
195.733826,-3552.988522,-2960.823768,-77069.207099
195.736367,-592.164754,-9326.594869,-79367.493593
195.738907,4737.318029,-7698.141797,-75843.454302
195.741447,-1628.453072,-5329.482782,-79980.369991
195.743988,1924.535449,-7698.141797,-77835.302597
195.746528,4737.318029,-5329.482782,-76915.987999
195.749069,3108.864956,1628.453072,-78601.398095
195.751609,-148.041188,-9030.512492,-78448.178995
195.754150,0.000000,-3997.112087,-76915.987999
195.756690,740.205942,-3404.947333,-80593.246390
195.759231,4737.318029,-3701.029710,-77528.864398
195.761771,-1184.329507,-3404.947333,-78448.178995
195.764312,-1924.535449,-444.123565,-78294.959896
195.766852,1776.494261,-8290.306550,-79061.055394
195.769392,0.000000,-7254.018232,-77375.645298
195.771933,-740.205942,-5477.523971,-76303.111601
195.774473,-296.082377,-12139.377449,-79367.493593
195.777014,592.164754,-16876.695478,-79673.931792
195.779554,1036.288319,-7994.224174,-75383.797003
195.782095,-2072.576638,-5921.647536,-79673.931792
195.784635,-1184.329507,-296.082377,-78448.178995
195.787176,2812.782580,5477.523971,-77835.302597
195.789716,296.082377,-1184.329507,-78601.398095
195.792257,7105.977043,7105.977043,-75843.454302
195.794797,-4589.276840,11695.253884,-76609.549800
195.797337,888.247130,592.164754,-78907.836294
195.799878,592.164754,-1332.370696,-77222.426198
195.802418,-2812.782580,5329.482782,-76762.768900
195.804959,-1036.288319,2072.576638,-78141.740796
195.807499,148.041188,1332.370696,-75690.235202
195.810040,2072.576638,6809.894666,-77375.645298
195.812580,1184.329507,1332.370696,-81206.122788
195.815121,1184.329507,5477.523971,-77375.645298
195.817661,-3256.906145,5477.523971,-79673.931792
195.820202,6809.894666,-4885.359217,-80899.684589
195.822742,-148.041188,4885.359217,-77375.645298
195.825282,-1628.453072,7402.059420,-79061.055394
195.827832,7846.182985,2220.617826,-79520.712692
195.830381,-1776.494261,5921.647536,-77528.864398
195.832931,-1628.453072,15544.324782,-76456.330700
195.835480,2516.700203,2960.823768,-80133.589091
195.838029,4885.359217,1184.329507,-75843.454302
195.840579,-8882.471304,6513.812290,-78907.836294
195.843128,-3256.906145,3404.947333,-77069.207099
195.845677,5773.606348,-4589.276840,-76762.768900
195.848227,-1776.494261,-5181.441594,-77069.207099
195.850776,-1184.329507,-9030.512492,-76149.892501
195.853326,-444.123565,-3997.112087,-78294.959896
195.855875,-1628.453072,-4885.359217,-76762.768900
195.858424,-1036.288319,-9622.677246,-77528.864398
195.860974,1036.288319,-9178.553681,-77682.083497
195.863523,3108.864956,-1776.494261,-76149.892501
195.866072,888.247130,-3108.864956,-79214.274493
195.868622,1332.370696,-10658.965565,-77069.207099
195.871171,2072.576638,-1184.329507,-78448.178995
195.873721,740.205942,-6069.688724,-80593.246390
195.876270,2516.700203,-4145.153275,-76762.768900
195.878819,4145.153275,-4441.235652,-77835.302597
195.881369,-296.082377,-3997.112087,-77988.521696
195.883918,-1036.288319,-4737.318029,-77988.521696
195.886467,3256.906145,-9474.636058,-77835.302597
195.889017,1776.494261,-7254.018232,-76609.549800
195.891566,-740.205942,-14359.995275,-78294.959896
195.894116,1332.370696,-14656.077652,-78601.398095
195.896665,-3849.070898,-9326.594869,-76762.768900
195.899214,5181.441594,-3404.947333,-76762.768900
195.901764,3404.947333,-2516.700203,-79061.055394
195.904313,-1184.329507,7402.059420,-77069.207099
195.906862,-2072.576638,13323.706956,-78448.178995
195.909412,6217.729913,2516.700203,-77988.521696
195.911961,-444.123565,11843.295072,-76609.549800
195.914510,-296.082377,4589.276840,-80286.808190
195.917060,1184.329507,-3256.906145,-78907.836294
195.919609,-2072.576638,444.123565,-78448.178995
195.922159,888.247130,10510.924376,-77988.521696
195.924708,-1628.453072,-1036.288319,-80593.246390
195.927257,1776.494261,1628.453072,-76303.111601
195.929776,-296.082377,11843.295072,-75996.673402
195.932295,2072.576638,2812.782580,-78754.617194
195.934813,-1776.494261,-1184.329507,-76762.768900
195.937332,3404.947333,2664.741391,-75230.577904
195.939850,740.205942,6069.688724,-79214.274493
195.942369,6809.894666,4293.194464,-77835.302597
195.944888,888.247130,7550.100608,-76609.549800
195.947406,-2072.576638,14359.995275,-76915.987999
195.949925,3256.906145,4441.235652,-79061.055394
195.952443,9474.636058,3849.070898,-77682.083497
195.954962,-11547.212695,4737.318029,-79520.712692
195.957481,1628.453072,0.000000,-75843.454302
195.959999,5181.441594,296.082377,-78448.178995
195.962518,-2812.782580,-10066.800811,-78141.740796
195.965036,1924.535449,-6365.771101,-76915.987999
195.967555,-2960.823768,-8586.388927,-80593.246390
195.970074,3256.906145,-4145.153275,-75537.016103
195.972592,-2220.617826,-6957.935855,-80286.808190
195.975111,3108.864956,-7698.141797,-77222.426198
195.977629,1480.411884,-4885.359217,-77682.083497
195.980148,-444.123565,-1036.288319,-79214.274493
195.982667,1924.535449,-6661.853478,-77528.864398
195.985185,5921.647536,-5329.482782,-78448.178995
195.987704,-1332.370696,1184.329507,-77988.521696
195.990222,2516.700203,-7698.141797,-77988.521696
195.992741,4293.194464,-5329.482782,-79214.274493
195.995260,148.041188,-4885.359217,-75843.454302
195.997778,-2960.823768,-6957.935855,-78601.398095
196.000297,-296.082377,-6957.935855,-79061.055394
196.002815,3701.029710,-7550.100608,-76762.768900
196.005334,740.205942,-13619.789333,-77835.302597
196.007853,-592.164754,-12879.583391,-77988.521696
196.010371,-2220.617826,-10807.006753,-77835.302597
196.012890,1332.370696,-592.164754,-76456.330700
196.015408,6957.935855,3701.029710,-79367.493593
196.017927,-1036.288319,-148.041188,-77222.426198
196.020446,444.123565,13915.871710,-77069.207099
196.022964,1184.329507,8586.388927,-79520.712692
196.025483,1628.453072,2812.782580,-77222.426198
196.028001,-1480.411884,10214.842000,-78448.178995
196.030534,7402.059420,-2368.659014,-79827.150892
196.033066,-148.041188,-3404.947333,-76915.987999
196.035599,3256.906145,10807.006753,-77988.521696
196.038131,-2960.823768,5773.606348,-80746.465489
196.040664,3997.112087,-2812.782580,-77069.207099
196.043196,1776.494261,9474.636058,-75996.673402
196.045728,444.123565,3108.864956,-80593.246390
196.048261,-3256.906145,2960.823768,-76609.549800
196.050793,2664.741391,592.164754,-76915.987999
196.053326,-444.123565,3404.947333,-76149.892501
196.055858,-740.205942,7698.141797,-77528.864398
196.058391,5921.647536,6809.894666,-77069.207099
196.060923,1628.453072,13767.830521,-78448.178995
196.063455,148.041188,8586.388927,-77835.302597
196.065988,5033.400406,4589.276840,-78448.178995
196.068520,-3256.906145,2220.617826,-78754.617194
196.071053,2516.700203,3404.947333,-76149.892501
196.073585,1332.370696,-2664.741391,-79214.274493
196.076118,740.205942,-9918.759623,-77835.302597
196.078650,2812.782580,-11399.171507,-76456.330700
196.081183,-6069.688724,-296.082377,-79061.055394
196.083715,1036.288319,-8734.430116,-77988.521696
196.086247,592.164754,-11103.089130,-77835.302597
196.088780,1036.288319,-592.164754,-78141.740796
196.091312,740.205942,-7105.977043,-78448.178995
196.093845,1184.329507,-3701.029710,-77835.302597
196.096377,-2664.741391,-2664.741391,-77988.521696
196.098910,2368.659014,-8586.388927,-78754.617194
196.101442,3404.947333,-2516.700203,-75843.454302
196.103974,740.205942,-444.123565,-80593.246390
196.106507,592.164754,-5625.565159,-77988.521696
196.109039,2368.659014,-4589.276840,-77988.521696
196.111572,-592.164754,-3849.070898,-78294.959896
196.114104,444.123565,-9030.512492,-79214.274493
196.116637,3997.112087,-11547.212695,-78601.398095
196.119169,-3552.988522,-13323.706956,-78754.617194
196.121702,888.247130,-13767.830521,-77375.645298
196.124234,2072.576638,-7846.182985,-78448.178995
196.126766,-1628.453072,3256.906145,-77375.645298
196.129299,-4441.235652,5329.482782,-79061.055394
196.131843,888.247130,6661.853478,-79520.712692
196.134386,-1480.411884,9178.553681,-76303.111601
196.136930,592.164754,12879.583391,-76456.330700
196.139474,888.247130,-1332.370696,-79673.931792
196.142018,0.000000,5625.565159,-75383.797003
196.144561,-4441.235652,2960.823768,-79520.712692
196.147105,3701.029710,-1776.494261,-77835.302597
196.149649,1184.329507,5181.441594,-76609.549800
196.152193,1924.535449,10362.883188,-76303.111601
196.154737,-1184.329507,1332.370696,-79980.369991
196.157280,1628.453072,6069.688724,-76456.330700
196.159824,-592.164754,148.041188,-79214.274493
196.162368,3701.029710,4737.318029,-76762.768900
196.164912,-4589.276840,5181.441594,-78294.959896
196.167455,3849.070898,1184.329507,-76609.549800
196.169999,-4737.318029,8882.471304,-78294.959896
196.172543,296.082377,17172.777854,-78907.836294
196.175087,1628.453072,4885.359217,-78294.959896
196.177631,5921.647536,7698.141797,-76456.330700
196.180174,-5921.647536,3404.947333,-79980.369991
196.182718,444.123565,-1184.329507,-77528.864398
196.185262,3108.864956,4885.359217,-78754.617194
196.187806,-1628.453072,-12435.459826,-79673.931792
196.190349,1776.494261,-12435.459826,-75077.358804
196.192893,-5033.400406,-2812.782580,-78448.178995
196.195437,888.247130,-7994.224174,-77988.521696
196.197981,2220.617826,-10066.800811,-77069.207099
196.200524,2368.659014,-5181.441594,-78141.740796
196.203068,0.000000,-6069.688724,-77375.645298
196.205612,148.041188,-1036.288319,-78448.178995
196.208156,148.041188,-5329.482782,-77682.083497
196.210700,2516.700203,-8438.347739,-77988.521696
196.213243,1628.453072,-740.205942,-76915.987999
196.215787,-4145.153275,-592.164754,-77375.645298
196.218331,-1036.288319,-3997.112087,-78448.178995
196.220875,4441.235652,-6217.729913,-78294.959896
196.223418,1776.494261,-4885.359217,-77682.083497
196.225962,-2812.782580,-6661.853478,-79214.274493
196.228506,2072.576638,-15692.365970,-78448.178995
196.231050,-592.164754,-13619.789333,-77069.207099
196.233602,-6661.853478,-11991.336260,-76762.768900
196.236154,6365.771101,-6365.771101,-77682.083497
196.238707,1924.535449,592.164754,-79367.493593
196.241259,1332.370696,3108.864956,-76762.768900
196.243811,-1924.535449,9770.718434,-78294.959896
196.246363,444.123565,7994.224174,-78448.178995
196.248916,0.000000,10362.883188,-75996.673402
196.251468,2220.617826,-740.205942,-79061.055394
196.254020,-1924.535449,3108.864956,-76303.111601
196.256572,-3997.112087,2960.823768,-77682.083497
196.259125,3552.988522,592.164754,-77375.645298
196.261677,592.164754,-1036.288319,-78141.740796
196.264229,3256.906145,8734.430116,-75383.797003
196.266781,-888.247130,5181.441594,-79367.493593
196.269334,3849.070898,2072.576638,-75996.673402
196.271886,3256.906145,2664.741391,-77069.207099
196.274438,2812.782580,2516.700203,-75690.235202
196.276991,-6365.771101,7254.018232,-76915.987999
196.279543,8142.265362,4737.318029,-77988.521696
196.282095,3849.070898,2960.823768,-77682.083497
196.284647,4441.235652,10510.924376,-76609.549800
196.287200,-592.164754,13323.706956,-77069.207099
196.289752,-1332.370696,2072.576638,-80746.465489
196.292304,7846.182985,148.041188,-75843.454302
196.294856,2812.782580,5477.523971,-77375.645298
196.297409,592.164754,-8438.347739,-78448.178995
196.299961,2072.576638,-4441.235652,-78294.959896
196.302513,3256.906145,-12435.459826,-77528.864398
196.305065,1184.329507,-6069.688724,-78141.740796
196.307618,-444.123565,-6513.812290,-79061.055394
196.310170,-148.041188,-5181.441594,-77069.207099
196.312722,1184.329507,-7846.182985,-77988.521696
196.315274,1628.453072,-3997.112087,-77222.426198
196.317827,888.247130,-4737.318029,-78294.959896
196.320379,-740.205942,-6069.688724,-78141.740796
196.322931,-1036.288319,-3108.864956,-76149.892501
196.325484,2516.700203,-5625.565159,-78448.178995
196.328036,-444.123565,-2368.659014,-77528.864398
196.330588,-3552.988522,-3404.947333,-77375.645298
196.333140,-444.123565,-5477.523971,-78754.617194
196.335700,1776.494261,-10214.842000,-78141.740796
196.338260,3108.864956,-13175.665768,-77528.864398
196.340819,-5625.565159,-13027.624579,-79367.493593
196.343379,-2368.659014,-14359.995275,-76609.549800
196.345938,4589.276840,-5181.441594,-77222.426198
196.348498,1480.411884,740.205942,-77682.083497
196.351058,-3552.988522,4589.276840,-79061.055394
196.353617,-2516.700203,11695.253884,-78907.836294
196.356177,5921.647536,9474.636058,-77069.207099
196.358736,-148.041188,10510.924376,-76149.892501
196.361296,1628.453072,740.205942,-79214.274493
196.363856,0.000000,1184.329507,-76456.330700
196.366415,4885.359217,4589.276840,-77375.645298
196.368975,-1776.494261,1924.535449,-80746.465489
196.371534,3256.906145,4293.194464,-75690.235202
196.374094,-2220.617826,5181.441594,-78294.959896
196.376654,4737.318029,4589.276840,-76915.987999
196.379213,-592.164754,2516.700203,-77069.207099
196.381773,-592.164754,1924.535449,-78141.740796
196.384332,740.205942,2812.782580,-76456.330700
196.386892,-1776.494261,6365.771101,-77069.207099
196.389452,3404.947333,2368.659014,-77988.521696
196.392011,2072.576638,8882.471304,-77988.521696
196.394571,148.041188,15840.407159,-77988.521696
196.397130,1924.535449,10214.842000,-78448.178995
196.399690,1776.494261,3849.070898,-78907.836294
196.402250,-1036.288319,1628.453072,-77222.426198
196.404809,4589.276840,2368.659014,-78294.959896
196.407369,-888.247130,-11103.089130,-78448.178995
196.409928,4293.194464,-4441.235652,-76915.987999
196.412488,-5625.565159,-12583.501014,-80440.027290
196.415048,5773.606348,-7105.977043,-74924.139704
196.417607,1036.288319,-6365.771101,-80286.808190
196.420167,2664.741391,-6513.812290,-78141.740796
196.422726,-2664.741391,-5921.647536,-77528.864398
196.425286,1184.329507,-4885.359217,-79827.150892
196.427846,2812.782580,-4737.318029,-77069.207099
196.430405,-1628.453072,-7105.977043,-79061.055394
196.432965,-888.247130,-888.247130,-78141.740796
196.435524,6957.935855,-1184.329507,-79214.274493
196.438089,3256.906145,-6661.853478,-78294.959896
196.440654,-6069.688724,-6661.853478,-77222.426198
196.443219,-9326.594869,-444.123565,-80593.246390
196.445784,7254.018232,-11695.253884,-79061.055394
196.448349,4293.194464,-18653.189738,-76762.768900
196.450913,-5329.482782,-11695.253884,-76609.549800
196.453478,-3404.947333,-14359.995275,-80593.246390
196.456043,2072.576638,-3552.988522,-74924.139704
196.458608,7994.224174,1332.370696,-75843.454302
196.461173,-8734.430116,444.123565,-79827.150892
196.463737,-2220.617826,12583.501014,-75843.454302
196.466302,-148.041188,11991.336260,-79214.274493
196.468867,1332.370696,5329.482782,-74617.701505
196.471432,1036.288319,2516.700203,-77835.302597
196.473997,148.041188,2516.700203,-79520.712692
196.476561,-2812.782580,1776.494261,-75230.577904
196.479126,3997.112087,3997.112087,-79520.712692
196.481691,-2812.782580,2072.576638,-78448.178995
196.484256,296.082377,7698.141797,-78448.178995
196.486821,-888.247130,6365.771101,-80440.027290
196.489386,5329.482782,-2516.700203,-76762.768900
196.491950,-2368.659014,4145.153275,-74770.920605
196.494515,-5181.441594,4737.318029,-79214.274493
196.497080,5181.441594,-148.041188,-77069.207099
196.499645,592.164754,6957.935855,-75383.797003
196.502210,-2664.741391,14359.995275,-77375.645298
196.504774,-592.164754,10658.965565,-79520.712692
196.507339,2220.617826,12435.459826,-76609.549800
196.509904,-1628.453072,148.041188,-77682.083497
196.512469,-1480.411884,3701.029710,-77835.302597
196.515034,2664.741391,-5033.400406,-77988.521696
196.517599,1924.535449,-6513.812290,-76609.549800
196.520163,444.123565,-15988.448347,-77682.083497
196.522728,1036.288319,-3552.988522,-77988.521696
196.525293,-2516.700203,-6365.771101,-78907.836294
196.527858,1332.370696,-6513.812290,-75383.797003
196.530423,6069.688724,-8142.265362,-77988.521696
196.532987,7254.018232,-3997.112087,-76915.987999
196.535552,-4293.194464,-3701.029710,-77835.302597
196.538117,4441.235652,-8290.306550,-77069.207099
196.540686,5033.400406,-1332.370696,-79520.712692
196.543254,444.123565,-4589.276840,-76609.549800
196.545823,-4293.194464,-1776.494261,-77682.083497
196.548392,5773.606348,-5477.523971,-78141.740796
196.550960,3256.906145,-9326.594869,-77528.864398
196.553529,-1036.288319,-5625.565159,-77375.645298
196.556098,-6217.729913,-8734.430116,-79061.055394
196.558667,296.082377,-15988.448347,-77069.207099
196.561235,-1924.535449,-12879.583391,-77069.207099
196.563804,4885.359217,-8438.347739,-75843.454302
196.566373,-1036.288319,3404.947333,-79520.712692
196.568941,-444.123565,5477.523971,-78141.740796
196.571510,4293.194464,7105.977043,-78907.836294
196.574079,2072.576638,5773.606348,-78141.740796
196.576648,444.123565,18653.189738,-74004.825107
196.579216,-2220.617826,2368.659014,-81512.560987
196.581785,4885.359217,296.082377,-76456.330700
196.584354,2220.617826,2220.617826,-78448.178995
196.586922,3552.988522,1184.329507,-79980.369991
196.589491,-3108.864956,6661.853478,-76149.892501
196.592060,6513.812290,4737.318029,-78294.959896
196.594629,444.123565,1924.535449,-78601.398095
196.597197,592.164754,3404.947333,-74464.482406
196.599766,740.205942,3552.988522,-78754.617194
196.602335,2368.659014,2220.617826,-78907.836294
196.604903,3849.070898,5773.606348,-75537.016103
196.607472,-4293.194464,4737.318029,-82125.437386
196.610041,6069.688724,9918.759623,-75077.358804
196.612610,-1332.370696,16580.613101,-78294.959896
196.615178,148.041188,8586.388927,-77375.645298
196.617747,444.123565,3552.988522,-79214.274493
196.620316,740.205942,3701.029710,-78448.178995
196.622884,4145.153275,296.082377,-77835.302597
196.625453,-1776.494261,-13323.706956,-78601.398095
196.628022,2960.823768,-11991.336260,-76456.330700
196.630591,-2368.659014,-6365.771101,-80746.465489
196.633159,-740.205942,-8586.388927,-77835.302597
196.635728,2368.659014,-4293.194464,-77375.645298
196.638297,2072.576638,-5477.523971,-80286.808190
196.640865,-3108.864956,-5773.606348,-76609.549800
196.643437,0.000000,-4737.318029,-78294.959896
196.646009,592.164754,-4589.276840,-77988.521696
196.648581,2812.782580,-4441.235652,-77988.521696
196.651153,-888.247130,-1480.411884,-76762.768900
196.653724,-444.123565,-3404.947333,-77222.426198
196.656296,3849.070898,-5329.482782,-78294.959896
196.658868,-2072.576638,-8290.306550,-78907.836294
196.661440,2368.659014,-8290.306550,-76915.987999
196.664011,-1480.411884,-11251.130318,-79061.055394
196.666583,1036.288319,-18801.230927,-77375.645298
196.669155,-2220.617826,-10807.006753,-77835.302597
196.671727,-296.082377,-4885.359217,-75690.235202
196.674299,7105.977043,2664.741391,-77835.302597
196.676870,-4145.153275,1480.411884,-78754.617194
196.679442,4441.235652,12583.501014,-78141.740796
196.682014,-4589.276840,8142.265362,-80133.589091
196.684586,4441.235652,14804.118840,-74158.044206
196.687157,1480.411884,-1036.288319,-81206.122788
196.689729,3108.864956,-4441.235652,-77069.207099
196.692301,1332.370696,7698.141797,-74311.263306
196.694873,1480.411884,444.123565,-82125.437386
196.697444,3108.864956,5477.523971,-74311.263306
196.700016,-1184.329507,8290.306550,-80593.246390
196.702588,4441.235652,3552.988522,-80133.589091
196.705160,4589.276840,592.164754,-76303.111601
196.707732,4589.276840,3256.906145,-76303.111601
196.710303,-3997.112087,4589.276840,-78141.740796
196.712875,296.082377,1776.494261,-77682.083497
196.715447,1628.453072,5921.647536,-78294.959896
196.718019,2960.823768,12879.583391,-76609.549800
196.720590,2072.576638,12583.501014,-77069.207099
196.723162,-2516.700203,11103.089130,-78294.959896
196.725734,1480.411884,-1628.453072,-75843.454302
196.728306,148.041188,148.041188,-77835.302597
196.730877,2812.782580,-4441.235652,-75843.454302
196.733449,-3849.070898,-7254.018232,-79367.493593
196.736021,-5477.523971,-16728.654289,-78601.398095
196.738593,5773.606348,-6957.935855,-76609.549800
196.741165,148.041188,-5773.606348,-81512.560987
196.743736,1332.370696,-1776.494261,-74770.920605
196.746275,-1628.453072,-3997.112087,-79980.369991
196.748814,5477.523971,-7994.224174,-78448.178995
196.751353,592.164754,-6957.935855,-76762.768900
196.753892,1332.370696,-3404.947333,-76762.768900
196.756431,-1480.411884,-3849.070898,-78448.178995
196.758969,1480.411884,-1924.535449,-77682.083497
196.761508,1628.453072,-2664.741391,-79061.055394
196.764047,1036.288319,-6217.729913,-79980.369991
196.766586,3849.070898,-6513.812290,-76762.768900
196.769125,-2072.576638,-15692.365970,-77682.083497
196.771664,3108.864956,-15248.242405,-76915.987999
196.774203,-6661.853478,-13323.706956,-79367.493593
196.776742,8142.265362,-9622.677246,-75383.797003
196.779280,-444.123565,3256.906145,-79980.369991
196.781819,148.041188,-296.082377,-77375.645298
196.784358,-1776.494261,14804.118840,-77682.083497
196.786897,-148.041188,10510.924376,-79367.493593
196.789436,7402.059420,10066.800811,-74158.044206
196.791975,-2072.576638,4885.359217,-79673.931792
196.794514,-2368.659014,148.041188,-77682.083497
196.797052,1184.329507,1332.370696,-78754.617194
196.799591,3256.906145,1924.535449,-76609.549800
196.802130,-888.247130,5921.647536,-76456.330700
196.804669,148.041188,6365.771101,-78141.740796
196.807208,1184.329507,3552.988522,-77528.864398
196.809747,1036.288319,-1924.535449,-76762.768900
196.812286,296.082377,4441.235652,-76915.987999
196.814824,0.000000,8142.265362,-77222.426198
196.817363,1924.535449,1480.411884,-79367.493593
196.819902,-148.041188,8142.265362,-78141.740796
196.822441,4145.153275,14211.954086,-77835.302597
196.824980,4441.235652,12287.418637,-77222.426198
196.827519,-3108.864956,14063.912898,-79980.369991
196.830058,-2072.576638,1036.288319,-79980.369991
196.832597,8586.388927,-4293.194464,-79673.931792
196.835135,1332.370696,-8586.388927,-76609.549800
196.837674,-2664.741391,-7254.018232,-77835.302597
196.840213,-3552.988522,-17468.860231,-79673.931792
196.842752,5329.482782,-6217.729913,-76303.111601
196.845291,-2220.617826,-7550.100608,-81818.999186
196.847804,-592.164754,-1332.370696,-77222.426198
196.850317,-2960.823768,-3701.029710,-77069.207099
196.852831,5477.523971,-7105.977043,-79214.274493
196.855344,-3701.029710,-5921.647536,-76609.549800
196.857857,-740.205942,-2516.700203,-78448.178995
196.860370,5181.441594,-2368.659014,-78601.398095
196.862884,740.205942,-4589.276840,-77069.207099
196.865397,-1036.288319,-3108.864956,-80286.808190
196.867910,296.082377,-8882.471304,-79827.150892
196.870424,2960.823768,-8438.347739,-75843.454302
196.872937,-1480.411884,-10807.006753,-77835.302597
196.875450,1628.453072,-20281.642811,-79061.055394
196.877963,-1628.453072,-15100.201217,-78294.959896
196.880477,-1332.370696,-4737.318029,-76762.768900
196.882990,7994.224174,-888.247130,-78448.178995
196.885503,-5181.441594,5625.565159,-78294.959896
196.888017,296.082377,11399.171507,-78754.617194
196.890530,4293.194464,6661.853478,-78448.178995
196.893043,3256.906145,11843.295072,-75383.797003
196.895556,4737.318029,6217.729913,-77682.083497
196.898070,740.205942,-4589.276840,-79673.931792
196.900583,-1628.453072,5625.565159,-76456.330700
196.903096,5773.606348,-1036.288319,-78448.178995
196.905609,1628.453072,7550.100608,-75077.358804
196.908123,-1628.453072,7550.100608,-79061.055394
196.910636,4441.235652,-2664.741391,-76915.987999
196.913149,-3404.947333,1332.370696,-75383.797003
196.915663,-10658.965565,9030.512492,-75996.673402
196.918176,888.247130,6217.729913,-78601.398095
196.920689,5329.482782,-2812.782580,-78294.959896
196.923202,-1184.329507,9622.677246,-74464.482406
196.925716,-4293.194464,20577.725188,-79214.274493
196.928229,9326.594869,7846.182985,-77222.426198
196.930742,-4441.235652,14804.118840,-77069.207099
196.933255,-1036.288319,-888.247130,-80440.027290
196.935769,5625.565159,-3108.864956,-77682.083497
196.938282,-148.041188,-8438.347739,-79214.274493
196.940795,9474.636058,-8586.388927,-74464.482406
196.943309,-4589.276840,-17024.736666,-81206.122788
196.945822,4737.318029,-7698.141797,-75843.454302
196.948350,1332.370696,-2960.823768,-80286.808190
196.950878,5921.647536,-2812.782580,-76762.768900
196.953406,-2664.741391,-3404.947333,-77988.521696
196.955934,3256.906145,-6661.853478,-78294.959896
196.958462,-2516.700203,-8882.471304,-77682.083497
196.960990,1036.288319,-5477.523971,-75843.454302
196.963517,2960.823768,-148.041188,-77682.083497
196.966045,-1628.453072,-5329.482782,-79214.274493
196.968573,3552.988522,-9030.512492,-76609.549800
196.971101,-1184.329507,-3849.070898,-78294.959896
196.973629,3256.906145,-8586.388927,-77988.521696
196.976157,740.205942,-14211.954086,-79061.055394
196.978685,-1184.329507,-17468.860231,-77835.302597
196.981213,2812.782580,-11991.336260,-77069.207099
196.983741,148.041188,0.000000,-77682.083497
196.986269,1036.288319,8734.430116,-75690.235202
196.988797,-5181.441594,5329.482782,-80440.027290
196.991325,6513.812290,10510.924376,-76303.111601
196.993853,-1036.288319,15988.448347,-79673.931792
196.996381,-2220.617826,6069.688724,-77375.645298
196.998909,-2368.659014,6661.853478,-76456.330700
197.001437,4885.359217,-7550.100608,-79980.369991
197.003965,1480.411884,-2664.741391,-75996.673402
197.006493,-7698.141797,12139.377449,-76915.987999
197.009021,2664.741391,296.082377,-78601.398095
197.011548,-296.082377,5921.647536,-77069.207099
197.014076,-2664.741391,1184.329507,-79367.493593
197.016604,-2072.576638,4441.235652,-78754.617194
197.019132,4293.194464,6661.853478,-75537.016103
197.021660,0.000000,6957.935855,-77988.521696
197.024188,0.000000,6069.688724,-79827.150892
197.026716,2812.782580,11695.253884,-79214.274493
197.029256,3997.112087,18801.230927,-78601.398095
197.031796,-2072.576638,9474.636058,-78294.959896
197.034335,-1036.288319,740.205942,-78601.398095
197.036875,4293.194464,-2368.659014,-79980.369991
197.039415,2664.741391,-10807.006753,-79673.931792
197.041954,-3256.906145,-5181.441594,-77835.302597
197.044494,-6069.688724,-16580.613101,-78294.959896
197.047034,2960.823768,-11991.336260,-75843.454302
197.049573,1036.288319,-6661.853478,-78754.617194
197.052113,740.205942,-148.041188,-76609.549800
197.054653,-888.247130,-888.247130,-78141.740796
197.057193,2072.576638,-7402.059420,-78907.836294
197.059732,-296.082377,-9770.718434,-76762.768900
197.062272,-1924.535449,-6365.771101,-75690.235202
197.064812,-2368.659014,3108.864956,-77069.207099
197.067351,1924.535449,-4293.194464,-77222.426198
197.069891,2960.823768,-9770.718434,-78448.178995
197.072431,2516.700203,-5033.400406,-77069.207099
197.074971,2368.659014,-8290.306550,-77375.645298
197.077510,592.164754,-12879.583391,-77222.426198
197.080050,-2960.823768,-17616.901420,-80133.589091
197.082590,5033.400406,-18949.272115,-77528.864398
197.085129,-1480.411884,1184.329507,-77069.207099
197.087669,3552.988522,7402.059420,-77835.302597
197.090209,-3552.988522,4589.276840,-79980.369991
197.092749,1924.535449,7994.224174,-76915.987999
197.095288,4589.276840,17320.819043,-77528.864398
197.097828,-4293.194464,5033.400406,-80286.808190
197.100368,888.247130,7550.100608,-73698.386908
197.102907,1480.411884,-6217.729913,-81359.341888
197.105447,4885.359217,-3552.988522,-75230.577904
197.107987,-592.164754,11991.336260,-77988.521696
197.110526,9474.636058,4293.194464,-79673.931792
197.113066,0.000000,3849.070898,-76762.768900
197.115606,-1036.288319,-2220.617826,-78141.740796
197.118146,2664.741391,7550.100608,-78448.178995
197.120685,1628.453072,5921.647536,-78754.617194
197.123225,6217.729913,2812.782580,-75690.235202
197.125765,-3108.864956,7254.018232,-80133.589091
197.128304,-3256.906145,10214.842000,-78448.178995
197.130854,3997.112087,16580.613101,-75690.235202
197.133404,-5921.647536,11251.130318,-76609.549800
197.135954,-2072.576638,4885.359217,-78448.178995
197.138503,4737.318029,-7105.977043,-78141.740796
197.141053,-1184.329507,-11991.336260,-76149.892501
197.143603,592.164754,-5921.647536,-74924.139704
197.146153,-2664.741391,-11843.295072,-81665.780087
197.148702,1332.370696,-13027.624579,-76456.330700
197.151252,1184.329507,-7550.100608,-78754.617194
197.153802,2220.617826,-740.205942,-77835.302597
197.156351,2960.823768,1184.329507,-76915.987999
197.158901,0.000000,-6069.688724,-78601.398095
197.161451,-2220.617826,-13175.665768,-78448.178995
197.164001,0.000000,-3256.906145,-73391.948708
197.166550,-3997.112087,2812.782580,-78448.178995
197.169100,2664.741391,-7846.182985,-78601.398095
197.171650,3849.070898,-9474.636058,-77222.426198
197.174200,-6365.771101,-1628.453072,-79367.493593
197.176749,1628.453072,-9474.636058,-78601.398095
197.179299,5033.400406,-22206.178260,-79827.150892
197.181849,-4885.359217,-12583.501014,-77069.207099
197.184399,-5329.482782,-2664.741391,-77222.426198
197.186948,8882.471304,1628.453072,-79367.493593
197.189498,-740.205942,6513.812290,-77222.426198
197.192048,2960.823768,11843.295072,-77682.083497
197.194598,-4293.194464,5773.606348,-79673.931792
197.197147,6661.853478,11843.295072,-74311.263306
197.199697,-296.082377,9474.636058,-80133.589091
197.202247,-444.123565,-1036.288319,-75537.016103
197.204796,-2516.700203,296.082377,-75843.454302
197.207346,3849.070898,2960.823768,-78754.617194
197.209896,1628.453072,5625.565159,-75690.235202
197.212446,-2812.782580,12583.501014,-77988.521696
197.214995,3849.070898,-1628.453072,-78294.959896
197.217545,3404.947333,296.082377,-76456.330700
197.220095,148.041188,8142.265362,-78448.178995
197.222645,2072.576638,8734.430116,-77988.521696
197.225194,-1184.329507,7105.977043,-80133.589091
197.227744,-3701.029710,9178.553681,-77988.521696
197.230294,6661.853478,13915.871710,-75537.016103
197.232818,-9622.677246,17172.777854,-79520.712692
197.235342,2220.617826,4737.318029,-75537.016103
197.237865,2516.700203,-6217.729913,-80899.684589
197.240389,2516.700203,-13619.789333,-77528.864398
197.242913,-2664.741391,-4441.235652,-78601.398095
197.245437,-2516.700203,-16728.654289,-78754.617194
197.247961,2368.659014,-8586.388927,-75230.577904
197.250485,148.041188,-8586.388927,-82125.437386
197.253008,6217.729913,-3256.906145,-75843.454302
197.255532,-3552.988522,3552.988522,-77069.207099
197.258056,3552.988522,-4441.235652,-79980.369991
197.260580,888.247130,-12435.459826,-79061.055394
197.263104,740.205942,-8586.388927,-75996.673402
197.265628,-1184.329507,2072.576638,-76609.549800
197.268152,2812.782580,-1480.411884,-78601.398095
197.270675,0.000000,-9030.512492,-78907.836294
197.273199,1628.453072,-6217.729913,-77682.083497
197.275723,-740.205942,-7402.059420,-78754.617194
197.278247,2812.782580,-14952.160028,-76915.987999
197.280771,-3108.864956,-17912.983796,-76609.549800
197.283295,1184.329507,-13027.624579,-76149.892501
197.285819,4589.276840,-3849.070898,-76762.768900
197.288342,1036.288319,7402.059420,-75690.235202
197.290866,-6513.812290,17172.777854,-79827.150892
197.293390,1628.453072,7105.977043,-80899.684589
197.295914,7254.018232,11103.089130,-76762.768900
197.298438,2220.617826,8586.388927,-79214.274493
197.300962,296.082377,3256.906145,-75843.454302
197.303485,-148.041188,-1480.411884,-79061.055394
197.306009,7550.100608,-5477.523971,-76915.987999
197.308533,-2960.823768,10214.842000,-77375.645298
197.311057,148.041188,7254.018232,-77069.207099
197.313581,11251.130318,7254.018232,-79367.493593
197.316105,1480.411884,-2368.659014,-80899.684589
197.318629,3997.112087,6809.894666,-73851.606007
197.321152,-3108.864956,8142.265362,-80746.465489
197.323676,2368.659014,6217.729913,-77528.864398
197.326200,3701.029710,5625.565159,-77069.207099
197.328724,3108.864956,12287.418637,-77835.302597
197.331248,-3849.070898,18949.272115,-77682.083497
197.333785,-740.205942,6513.812290,-78448.178995
197.336321,3849.070898,1036.288319,-78601.398095
197.338858,-3552.988522,-16728.654289,-79061.055394
197.341395,1924.535449,-7550.100608,-74924.139704
197.343932,-7402.059420,-13323.706956,-78601.398095
197.346469,3256.906145,-9178.553681,-75537.016103
197.349006,-2960.823768,-11547.212695,-81512.560987
197.351542,2220.617826,-1332.370696,-75690.235202
197.354079,-4145.153275,2664.741391,-78141.740796
197.356616,7105.977043,-3108.864956,-77375.645298
197.359153,-3552.988522,-6661.853478,-77682.083497
197.361690,444.123565,-10807.006753,-78294.959896
197.364227,0.000000,0.000000,-78294.959896
197.366763,296.082377,-1628.453072,-79214.274493
197.369300,3997.112087,-10955.047942,-78294.959896
197.371837,0.000000,-13027.624579,-79214.274493
197.374374,148.041188,-5477.523971,-76762.768900
197.376911,1776.494261,-18061.024985,-77835.302597
197.379447,-3849.070898,-14804.118840,-78754.617194
197.381984,-6809.894666,-6957.935855,-77528.864398
197.384521,7698.141797,1332.370696,-76149.892501
197.387058,-2516.700203,5625.565159,-77528.864398
197.389595,8142.265362,16432.571912,-74617.701505
197.392132,-4145.153275,10807.006753,-81206.122788
197.394668,4293.194464,11251.130318,-74617.701505
197.397205,3404.947333,8290.306550,-79520.712692
197.399742,2960.823768,-888.247130,-77069.207099
197.402279,-4885.359217,2072.576638,-76915.987999
197.404816,1924.535449,-296.082377,-79367.493593
197.407352,-592.164754,2812.782580,-77375.645298
197.409889,740.205942,7698.141797,-74158.044206
197.412426,0.000000,6217.729913,-81359.341888
197.414963,2960.823768,-1628.453072,-76609.549800
197.417500,2664.741391,8882.471304,-75383.797003
197.420037,-296.082377,6217.729913,-79673.931792
197.422573,4145.153275,9474.636058,-74158.044206
197.425110,148.041188,8586.388927,-79214.274493
197.427647,4589.276840,12287.418637,-76149.892501
197.430184,3108.864956,12731.542202,-78294.959896
197.432721,592.164754,3404.947333,-78601.398095
197.435268,4589.276840,-740.205942,-75230.577904
197.437815,-2664.741391,-19837.519246,-80133.589091
197.440362,3552.988522,-10807.006753,-76303.111601
197.442909,-1776.494261,-10658.965565,-80133.589091
197.445457,1628.453072,-13619.789333,-77528.864398
197.448004,-2220.617826,-5625.565159,-77375.645298
197.450551,1776.494261,-1480.411884,-78601.398095
197.453098,1628.453072,-740.205942,-77375.645298
197.455645,-148.041188,-1184.329507,-77222.426198
197.458192,1924.535449,-11843.295072,-77682.083497
197.460740,-1332.370696,-5625.565159,-76915.987999
197.463287,-2812.782580,148.041188,-76609.549800
197.465834,2516.700203,-3701.029710,-77528.864398
197.468381,1184.329507,-8586.388927,-78754.617194
197.470928,2220.617826,-10362.883188,-77835.302597
197.473476,444.123565,-13175.665768,-77375.645298
197.476023,-5625.565159,-9770.718434,-78448.178995
197.478570,7550.100608,-21021.848753,-77988.521696
197.481117,1332.370696,-5033.400406,-77375.645298
197.483664,-4441.235652,7698.141797,-77069.207099
197.486211,592.164754,8586.388927,-80593.246390
197.488759,2664.741391,11695.253884,-77222.426198
197.491306,4589.276840,17320.819043,-79214.274493
197.493853,-3256.906145,3404.947333,-80593.246390
197.496400,-444.123565,5033.400406,-74770.920605
197.498947,-1924.535449,2812.782580,-80286.808190
197.501495,5477.523971,-3997.112087,-78294.959896
197.504042,-1776.494261,4293.194464,-74617.701505
197.506589,-2220.617826,5181.441594,-79061.055394
197.509136,2220.617826,8882.471304,-77222.426198
197.511683,-1036.288319,1924.535449,-77988.521696
197.514230,-444.123565,1036.288319,-76762.768900
197.516778,2368.659014,7846.182985,-76303.111601
197.519325,-1036.288319,7994.224174,-78141.740796
197.521872,1776.494261,9326.594869,-77375.645298
197.524419,6069.688724,10658.965565,-77222.426198
197.526966,-9474.636058,17764.942608,-78754.617194
197.529514,-740.205942,8290.306550,-77069.207099
197.532061,3108.864956,1924.535449,-79520.712692
197.534608,2368.659014,-18357.107362,-76915.987999
197.537165,-2220.617826,-7846.182985,-78141.740796
197.539720,-7105.977043,-11399.171507,-79980.369991
197.542276,4145.153275,-11399.171507,-75537.016103
197.544832,-2220.617826,-11251.130318,-80899.684589
197.547387,5329.482782,-1184.329507,-77988.521696
197.549943,-3997.112087,2072.576638,-78754.617194
197.552499,6365.771101,-4293.194464,-77835.302597
197.555055,-1628.453072,-5033.400406,-77375.645298
197.557610,-2960.823768,-10658.965565,-78601.398095
197.560166,-1924.535449,296.082377,-77069.207099
197.562722,0.000000,-1924.535449,-78448.178995
197.565278,6957.935855,-12731.542202,-76456.330700
197.567833,-888.247130,-12583.501014,-78448.178995
197.570389,-3256.906145,-6069.688724,-76609.549800
197.572945,740.205942,-16432.571912,-78754.617194
197.575500,6069.688724,-13619.789333,-76609.549800
197.578056,2368.659014,-8142.265362,-78754.617194
197.580612,1332.370696,3701.029710,-77222.426198
197.583168,-4441.235652,16580.613101,-79367.493593
197.585723,3552.988522,10362.883188,-77988.521696
197.588279,7105.977043,10955.047942,-76456.330700
197.590835,-3997.112087,7994.224174,-79827.150892
197.593391,-2368.659014,3256.906145,-75843.454302
197.595946,4441.235652,296.082377,-79367.493593
197.598502,5477.523971,-2812.782580,-78141.740796
197.601058,-6365.771101,4145.153275,-77682.083497
197.603613,-296.082377,7846.182985,-79520.712692
197.606169,7994.224174,3997.112087,-77375.645298
197.608725,5181.441594,-1332.370696,-75230.577904
197.611281,-2368.659014,7254.018232,-77069.207099
197.613836,2072.576638,4885.359217,-79980.369991
197.616392,-1036.288319,9622.677246,-77222.426198
197.618948,1776.494261,8734.430116,-77069.207099
197.621504,-888.247130,13027.624579,-77835.302597
197.624059,-1776.494261,17616.901420,-77222.426198
197.626615,3256.906145,2368.659014,-77069.207099
197.629171,2220.617826,2812.782580,-77988.521696
197.631726,-888.247130,-14804.118840,-79520.712692
197.634282,5773.606348,-15544.324782,-76456.330700
197.636838,-8142.265362,-8438.347739,-79980.369991
197.639401,7550.100608,-16580.613101,-77375.645298
197.641963,-2368.659014,-4737.318029,-79367.493593
197.644526,4589.276840,-2812.782580,-76915.987999
197.647089,-3256.906145,2664.741391,-79214.274493
197.649651,2072.576638,-3256.906145,-78754.617194
197.652214,2516.700203,-10362.883188,-78448.178995
197.654777,-2368.659014,-5181.441594,-77835.302597
197.657340,-4737.318029,1480.411884,-77835.302597
197.659902,3552.988522,-7105.977043,-76456.330700
197.662465,296.082377,-10214.842000,-77375.645298
197.665028,-1480.411884,-9622.677246,-78754.617194
197.667590,1628.453072,-14508.036463,-78601.398095
197.670153,296.082377,-16136.489536,-77069.207099
197.672716,1924.535449,-10510.924376,-77375.645298
197.675279,4441.235652,-8290.306550,-80899.684589
197.677841,-2220.617826,4145.153275,-77835.302597
197.680404,5181.441594,18357.107362,-76303.111601
197.682967,444.123565,13767.830521,-80593.246390
197.685529,2072.576638,7105.977043,-76303.111601
197.688092,592.164754,11843.295072,-79827.150892
197.690655,2072.576638,-4145.153275,-78754.617194
197.693217,-1776.494261,2812.782580,-74311.263306
197.695780,592.164754,296.082377,-78907.836294
197.698343,4145.153275,-1480.411884,-78294.959896
197.700906,-3701.029710,6513.812290,-75230.577904
197.703468,5477.523971,11251.130318,-77222.426198
197.706031,-592.164754,444.123565,-80133.589091
197.708594,-1924.535449,4885.359217,-74770.920605
197.711156,3849.070898,4589.276840,-79061.055394
197.713719,-592.164754,13175.665768,-77682.083497
197.716282,1924.535449,12731.542202,-77222.426198
197.718845,2072.576638,9770.718434,-79673.931792
197.721407,2368.659014,13767.830521,-78294.959896
197.723970,4885.359217,3701.029710,-79367.493593
197.726533,2812.782580,-13915.871710,-79061.055394
197.729095,-740.205942,-9326.594869,-78294.959896
197.731658,1184.329507,-23390.507767,-78448.178995
197.734221,-592.164754,-9474.636058,-76609.549800
197.736783,2664.741391,-9178.553681,-79367.493593
197.739346,296.082377,-5033.400406,-78141.740796
197.741915,444.123565,2220.617826,-75690.235202
197.744484,5773.606348,-592.164754,-78601.398095
197.747052,148.041188,-6217.729913,-78601.398095
197.749621,888.247130,-4589.276840,-75690.235202
197.752190,-148.041188,-11547.212695,-77988.521696
197.754758,2220.617826,-296.082377,-75843.454302
197.757327,1332.370696,-6513.812290,-79673.931792
197.759896,1628.453072,-12879.583391,-77528.864398
197.762464,-888.247130,-11399.171507,-76762.768900
197.765033,-2072.576638,-11547.212695,-77375.645298
197.767602,3552.988522,-17616.901420,-77682.083497
197.770170,3256.906145,-4589.276840,-77069.207099
197.772739,-740.205942,444.123565,-79061.055394
197.775308,-2516.700203,12583.501014,-79214.274493
197.777877,740.205942,12139.377449,-77528.864398
197.780445,7105.977043,19097.313304,-77835.302597
197.783014,-2960.823768,7698.141797,-80286.808190
197.785583,1480.411884,5773.606348,-74770.920605
197.788151,-1036.288319,2072.576638,-78907.836294
197.790720,5033.400406,-2072.576638,-78754.617194
197.793289,-2368.659014,2812.782580,-73851.606007
197.795857,1036.288319,2516.700203,-78907.836294
197.798426,4885.359217,7846.182985,-78448.178995
197.800995,1776.494261,6513.812290,-78294.959896
197.803563,-2516.700203,4441.235652,-77069.207099
197.806132,3997.112087,6069.688724,-76609.549800
197.808701,-3108.864956,10214.842000,-78448.178995
197.811270,1184.329507,12435.459826,-77069.207099
197.813838,1924.535449,12879.583391,-78601.398095
197.816407,4441.235652,14656.077652,-78448.178995
197.818976,1480.411884,2368.659014,-77682.083497
197.821544,4145.153275,-7994.224174,-77988.521696
197.824113,-1924.535449,-11991.336260,-78141.740796
197.826682,6069.688724,-19837.519246,-77222.426198
197.829250,-2664.741391,-9326.594869,-79214.274493
197.831819,4293.194464,-12139.377449,-79520.712692
197.834388,592.164754,-1924.535449,-78448.178995
197.836956,296.082377,-1184.329507,-78294.959896
197.839525,2960.823768,-592.164754,-77069.207099
197.842094,148.041188,-2812.782580,-78754.617194
197.844634,888.247130,-8290.306550,-76303.111601
197.847174,-888.247130,-8438.347739,-78601.398095
197.849715,592.164754,-2368.659014,-78294.959896
197.852255,3404.947333,-6809.894666,-78294.959896
197.854795,-1776.494261,-9178.553681,-78754.617194
197.857336,-1332.370696,-12435.459826,-78907.836294
197.859876,2960.823768,-13619.789333,-77682.083497
197.862416,2664.741391,-13175.665768,-78754.617194
197.864957,4441.235652,-10362.883188,-77069.207099
197.867497,-4589.276840,4885.359217,-79673.931792
197.870037,-148.041188,7402.059420,-79214.274493
197.872578,5329.482782,13471.748144,-76762.768900
197.875118,-5329.482782,20725.766376,-77528.864398
197.877658,3849.070898,7254.018232,-77375.645298
197.880198,148.041188,3256.906145,-78601.398095
197.882739,0.000000,1480.411884,-76303.111601
197.885279,-740.205942,-2812.782580,-77375.645298
197.887819,-1332.370696,4293.194464,-77682.083497
197.890360,1184.329507,3997.112087,-79214.274493
197.892900,1480.411884,3849.070898,-78294.959896
197.895440,0.000000,6365.771101,-77988.521696
197.897981,-1628.453072,6069.688724,-79367.493593
197.900521,444.123565,6069.688724,-77528.864398
197.903061,-3256.906145,8882.471304,-76762.768900
197.905601,2072.576638,12879.583391,-78754.617194
197.908142,-2072.576638,14359.995275,-77988.521696
197.910682,-592.164754,15544.324782,-76762.768900
197.913222,1184.329507,1480.411884,-78754.617194
197.915763,3108.864956,-8734.430116,-78448.178995
197.918303,-3849.070898,-12879.583391,-78448.178995
197.920843,148.041188,-16284.530724,-78294.959896
197.923384,444.123565,-13619.789333,-76609.549800
197.925924,1184.329507,-11399.171507,-79214.274493
197.928464,148.041188,-1332.370696,-77988.521696
197.931005,-888.247130,-1036.288319,-77222.426198
197.933545,4441.235652,0.000000,-77069.207099
197.936085,-2072.576638,-2960.823768,-79214.274493
197.938625,-592.164754,-9918.759623,-77682.083497
197.941166,2368.659014,-7105.977043,-77682.083497
197.943706,-1036.288319,-740.205942,-77375.645298
197.946256,2812.782580,-8142.265362,-79367.493593
197.948807,1924.535449,-15100.201217,-77988.521696
197.951357,-296.082377,-13323.706956,-77528.864398
197.953908,-1628.453072,-13767.830521,-78448.178995
197.956458,1332.370696,-14063.912898,-77069.207099
197.959008,3108.864956,-4589.276840,-77375.645298
197.961559,888.247130,-3849.070898,-78601.398095
197.964109,-740.205942,17024.736666,-78294.959896
197.966659,-3552.988522,17320.819043,-77988.521696
197.969210,5921.647536,13915.871710,-77835.302597
197.971760,-740.205942,9326.594869,-79061.055394
197.974311,5625.565159,-296.082377,-78294.959896
197.976861,-3552.988522,1776.494261,-79214.274493
197.979411,5329.482782,-888.247130,-75843.454302
197.981962,148.041188,148.041188,-79673.931792
197.984512,-592.164754,2220.617826,-79061.055394
197.987062,2368.659014,7994.224174,-76609.549800
197.989613,3552.988522,2368.659014,-77222.426198
197.992163,-3108.864956,9474.636058,-78754.617194
197.994713,-2664.741391,5477.523971,-77222.426198
197.997264,4293.194464,7994.224174,-78907.836294
197.999814,-5625.565159,18653.189738,-78907.836294
198.002365,3997.112087,7698.141797,-76915.987999
198.004915,-1480.411884,7550.100608,-77835.302597
198.007465,2664.741391,1332.370696,-76609.549800
198.010016,-3404.947333,-11547.212695,-80746.465489
198.012566,-1628.453072,-19985.560434,-78601.398095
198.015116,4737.318029,-14211.954086,-76609.549800
198.017667,-5181.441594,-11103.089130,-80899.684589
198.020217,3997.112087,-6217.729913,-74617.701505
198.022768,3256.906145,0.000000,-79214.274493
198.025318,2220.617826,1036.288319,-78141.740796
198.027868,-1036.288319,-2664.741391,-78907.836294
198.030419,4145.153275,-5773.606348,-80286.808190
198.032969,3997.112087,-6957.935855,-77222.426198
198.035519,-2664.741391,-888.247130,-77375.645298
198.038070,1036.288319,-8142.265362,-79367.493593
198.040620,296.082377,-10807.006753,-77375.645298
198.043170,-1628.453072,-13027.624579,-77222.426198
198.045721,-1924.535449,-17172.777854,-78294.959896
198.048279,1480.411884,-13471.748144,-77835.302597
198.050837,1036.288319,-8586.388927,-77528.864398
198.053395,740.205942,-148.041188,-77528.864398
198.055954,-6957.935855,11843.295072,-79214.274493
198.058512,1628.453072,10955.047942,-77988.521696
198.061070,1184.329507,18505.148550,-76609.549800
198.063628,-1332.370696,10658.965565,-79520.712692
198.066186,1184.329507,1480.411884,-75843.454302
198.068745,-6513.812290,1480.411884,-78141.740796
198.071303,6809.894666,-3849.070898,-77835.302597
198.073861,-3997.112087,2812.782580,-77682.083497
198.076419,1776.494261,6513.812290,-78141.740796
198.078977,4293.194464,1332.370696,-78294.959896
198.081536,8586.388927,-148.041188,-76149.892501
198.084094,-1332.370696,10362.883188,-76762.768900
198.086652,444.123565,7846.182985,-78601.398095
198.089210,5181.441594,4885.359217,-79673.931792
198.091768,6513.812290,17320.819043,-77528.864398
198.094327,-1036.288319,13767.830521,-81052.903688
198.096885,1184.329507,8438.347739,-78907.836294
198.099443,3552.988522,5921.647536,-77528.864398
198.102001,-1184.329507,-14359.995275,-81512.560987
198.104559,4441.235652,-17912.983796,-75383.797003
198.107118,-4441.235652,-16284.530724,-80286.808190
198.109676,-148.041188,-13027.624579,-76303.111601
198.112234,-4589.276840,-8882.471304,-78907.836294
198.114792,4737.318029,-2220.617826,-77375.645298
198.117350,-5773.606348,1480.411884,-78141.740796
198.119909,-296.082377,-3997.112087,-75996.673402
198.122467,1036.288319,-2516.700203,-77988.521696
198.125025,1924.535449,-8290.306550,-78448.178995
198.127583,-6661.853478,-2812.782580,-76609.549800
198.130141,4589.276840,-6661.853478,-78907.836294
198.132700,3108.864956,-11547.212695,-77069.207099
198.135258,444.123565,-13915.871710,-76609.549800
198.137816,-5477.523971,-12879.583391,-80899.684589
198.140374,6365.771101,-14804.118840,-76609.549800
198.142932,3552.988522,-9918.759623,-77375.645298
198.145491,-4145.153275,3108.864956,-79061.055394
198.148049,1628.453072,9474.636058,-77988.521696
198.150614,3701.029710,15692.365970,-78601.398095
198.153179,888.247130,17172.777854,-75230.577904
198.155744,5033.400406,9622.677246,-79214.274493
198.158308,-2072.576638,7550.100608,-78601.398095
198.160873,4737.318029,-4441.235652,-76149.892501
198.163438,-1036.288319,1332.370696,-79367.493593
198.166003,888.247130,3849.070898,-74617.701505
198.168568,592.164754,-3997.112087,-77375.645298
198.171133,4589.276840,2812.782580,-78141.740796
198.173698,-1628.453072,8734.430116,-76303.111601
198.176263,-1776.494261,10807.006753,-78601.398095
198.178828,4737.318029,3552.988522,-75996.673402
198.181393,-2516.700203,13471.748144,-76303.111601
198.183957,-1332.370696,14063.912898,-78907.836294
198.186522,6957.935855,6069.688724,-77222.426198
198.189087,-2368.659014,19541.436869,-77069.207099
198.191652,-5921.647536,5329.482782,-79214.274493
198.194217,2368.659014,-19541.436869,-79520.712692
198.196782,3404.947333,-12287.418637,-76915.987999
198.199347,444.123565,-15396.283594,-77528.864398
198.201912,-5033.400406,-17764.942608,-78907.836294
198.204477,1184.329507,-6957.935855,-75996.673402
198.207042,7698.141797,-2072.576638,-78907.836294
198.209606,-4145.153275,2220.617826,-78294.959896
198.212171,4885.359217,-2220.617826,-77682.083497
198.214736,4293.194464,-3404.947333,-79061.055394
198.217301,3256.906145,-10658.965565,-77835.302597
198.219866,-3552.988522,-1628.453072,-77222.426198
198.222431,2516.700203,-9622.677246,-81052.903688
198.224996,4293.194464,-8734.430116,-76915.987999
198.227561,1332.370696,-14804.118840,-79214.274493
198.230126,-888.247130,-18209.066173,-78601.398095
198.232690,2664.741391,-13027.624579,-76915.987999
198.235255,2516.700203,-6661.853478,-77682.083497
198.237820,1184.329507,-5625.565159,-78294.959896
198.240385,1924.535449,13767.830521,-75843.454302
198.242950,-3997.112087,17024.736666,-79367.493593
198.245515,740.205942,14952.160028,-76762.768900
198.248080,2220.617826,11547.212695,-78294.959896
198.250645,1924.535449,2072.576638,-77528.864398
198.253214,-4589.276840,148.041188,-77835.302597
198.255784,5329.482782,-148.041188,-78448.178995
198.258354,-1924.535449,2516.700203,-75537.016103
198.260923,-592.164754,6661.853478,-77222.426198
198.263493,-4293.194464,8734.430116,-79367.493593
198.266063,7105.977043,888.247130,-73851.606007
198.268632,740.205942,10807.006753,-76609.549800
198.271202,-1924.535449,10955.047942,-79367.493593
198.273772,3849.070898,6809.894666,-78601.398095
198.276341,2220.617826,14952.160028,-78141.740796
198.278911,-1776.494261,13027.624579,-77835.302597
198.281480,5477.523971,740.205942,-80286.808190
198.284050,2220.617826,-4589.276840,-78601.398095
198.286620,-1924.535449,-11251.130318,-77835.302597
198.289189,1184.329507,-25907.207970,-78754.617194
198.291759,1924.535449,-8438.347739,-77069.207099
198.294329,740.205942,-15396.283594,-80593.246390
198.296898,-2664.741391,-2664.741391,-76915.987999
198.299468,3108.864956,-2516.700203,-78294.959896
198.302038,1184.329507,-740.205942,-78294.959896
198.304607,-5921.647536,-1480.411884,-79367.493593
198.307177,3404.947333,-7105.977043,-77222.426198
198.309747,5329.482782,-11399.171507,-79827.150892
198.312316,-2368.659014,-2960.823768,-77835.302597
198.314886,592.164754,-10658.965565,-79520.712692
198.317455,5033.400406,-16580.613101,-76762.768900
198.320025,-5181.441594,-8734.430116,-76609.549800
198.322595,592.164754,-21465.972318,-79061.055394
198.325164,-1628.453072,-11251.130318,-77222.426198
198.327734,444.123565,5329.482782,-75383.797003
198.330304,-3404.947333,2664.741391,-79673.931792
198.332873,2960.823768,13915.871710,-76303.111601
198.335443,-296.082377,21317.931130,-75996.673402
198.338013,1332.370696,12879.583391,-79214.274493
198.340582,1184.329507,9326.594869,-77222.426198
198.343152,2220.617826,-2516.700203,-78141.740796
198.345722,-1776.494261,2368.659014,-78448.178995
198.348291,1332.370696,-1332.370696,-77222.426198
