#time,accel_x,accel_y,accel_z
541.991965,-2664.741391,0.000000,-77528.864398
541.994602,-2072.576638,1036.288319,-76762.768900
541.997240,2960.823768,-5181.441594,-78907.836294
541.999877,3997.112087,-5921.647536,-77988.521696
542.002514,148.041188,-3701.029710,-78294.959896
542.005151,1332.370696,-3552.988522,-76456.330700
542.007788,148.041188,-11695.253884,-80440.027290
542.010425,4885.359217,-12879.583391,-76915.987999
542.013062,-2516.700203,-12583.501014,-77375.645298
542.015699,740.205942,1924.535449,-77222.426198
542.018337,1332.370696,-592.164754,-79980.369991
542.020974,3997.112087,5033.400406,-75843.454302
542.023611,0.000000,16136.489536,-78601.398095
542.026248,2072.576638,6069.688724,-79827.150892
542.028885,888.247130,3552.988522,-75537.016103
542.031522,-2072.576638,-8142.265362,-79673.931792
542.034159,3404.947333,-12583.501014,-77069.207099
542.036796,-3256.906145,-1332.370696,-77988.521696
542.039434,2664.741391,148.041188,-77222.426198
542.042071,1184.329507,8734.430116,-77988.521696
542.044708,740.205942,10362.883188,-77835.302597
542.047345,888.247130,10658.965565,-78448.178995
542.049982,-1036.288319,888.247130,-78754.617194
542.052619,3997.112087,-2072.576638,-77069.207099
542.055256,-888.247130,3108.864956,-77682.083497
542.057893,296.082377,3404.947333,-78601.398095
542.060530,1184.329507,-3849.070898,-79520.712692
542.063168,888.247130,-3849.070898,-78294.959896
542.065805,740.205942,5773.606348,-76762.768900
542.068442,2516.700203,3997.112087,-77222.426198
542.071079,-1332.370696,-1628.453072,-78448.178995
542.073716,1480.411884,-740.205942,-77222.426198
542.076353,-444.123565,9178.553681,-77528.864398
542.079022,592.164754,13915.871710,-76149.892501
542.081691,3552.988522,5625.565159,-78294.959896
542.084360,-888.247130,1036.288319,-78141.740796
542.087029,5329.482782,-2516.700203,-76762.768900
542.089697,-1776.494261,-5181.441594,-77988.521696
542.092366,740.205942,-296.082377,-77069.207099
542.095035,888.247130,592.164754,-79214.274493
542.097704,2516.700203,4441.235652,-80133.589091
542.100373,2960.823768,9918.759623,-77988.521696
542.103042,2812.782580,7105.977043,-78754.617194
542.105711,0.000000,2072.576638,-76762.768900
542.108379,444.123565,-888.247130,-76915.987999
542.111048,444.123565,-1924.535449,-78907.836294
542.113717,3108.864956,-9770.718434,-77682.083497
542.116386,0.000000,-14063.912898,-77988.521696
542.119055,-1480.411884,-5181.441594,-77222.426198
542.121724,-740.205942,7402.059420,-76915.987999
542.124393,-1776.494261,-3701.029710,-81972.218286
542.127061,6661.853478,1480.411884,-74004.825107
542.129730,296.082377,2960.823768,-80286.808190
542.132399,-1036.288319,-5181.441594,-76915.987999
542.135068,2072.576638,-7254.018232,-77222.426198
542.137737,1480.411884,-12731.542202,-79673.931792
542.140406,-3701.029710,-5921.647536,-78294.959896
542.143075,-2220.617826,1184.329507,-77375.645298
542.145743,-148.041188,296.082377,-80440.027290
542.148412,4885.359217,-3849.070898,-76915.987999
542.151081,-1628.453072,-888.247130,-77222.426198
542.153750,1036.288319,-1924.535449,-78294.959896
542.156419,148.041188,-5625.565159,-77375.645298
542.159088,1332.370696,-7105.977043,-76456.330700
542.161757,-2812.782580,1184.329507,-78294.959896
542.164425,-888.247130,-3108.864956,-78754.617194
542.167094,2368.659014,-4145.153275,-76303.111601
542.169763,2368.659014,-1776.494261,-78754.617194
542.172432,1480.411884,0.000000,-75230.577904
542.175101,-1036.288319,-5033.400406,-79061.055394
542.177770,1480.411884,-7254.018232,-79367.493593
542.180438,3404.947333,-5477.523971,-78601.398095
542.183107,4589.276840,-1924.535449,-77988.521696
542.185790,-296.082377,1480.411884,-78294.959896
542.188473,2960.823768,-4441.235652,-78448.178995
542.191155,-3256.906145,-6809.894666,-79214.274493
542.193838,-296.082377,-1924.535449,-77682.083497
542.196520,296.082377,-8586.388927,-77375.645298
542.199203,1480.411884,-2368.659014,-75843.454302
542.201885,-7698.141797,5033.400406,-78601.398095
542.204568,2220.617826,-2368.659014,-78294.959896
542.207251,-740.205942,-6661.853478,-77222.426198
542.209933,2960.823768,1184.329507,-75230.577904
542.212616,-2368.659014,1332.370696,-79827.150892
542.215298,3701.029710,-6365.771101,-77222.426198
542.217981,4145.153275,1924.535449,-77069.207099
542.220664,-296.082377,1480.411884,-80286.808190
542.223346,-1332.370696,5625.565159,-74004.825107
542.226029,4145.153275,14952.160028,-76762.768900
542.228711,1184.329507,148.041188,-79520.712692
542.231394,-1480.411884,3404.947333,-77835.302597
542.234076,-4145.153275,4589.276840,-77835.302597
542.236759,4589.276840,2368.659014,-76303.111601
542.239442,148.041188,-5181.441594,-78754.617194
542.242124,1924.535449,-5329.482782,-76456.330700
542.244807,740.205942,5329.482782,-79214.274493
542.247489,3849.070898,9326.594869,-78141.740796
542.250172,1332.370696,10955.047942,-77069.207099
542.252855,-2664.741391,7254.018232,-80286.808190
542.255537,4145.153275,-3108.864956,-78448.178995
542.258220,0.000000,-2220.617826,-77528.864398
542.260902,-2220.617826,7846.182985,-74924.139704
542.263585,1184.329507,-444.123565,-79827.150892
542.266267,3552.988522,-6513.812290,-76915.987999
542.268950,-6809.894666,-296.082377,-76456.330700
542.271633,-444.123565,7846.182985,-78448.178995
542.274315,2072.576638,2072.576638,-77375.645298
542.276998,740.205942,-1184.329507,-77835.302597
542.279680,-1184.329507,-888.247130,-78907.836294
542.282363,2664.741391,8882.471304,-78448.178995
542.285046,2664.741391,11547.212695,-77069.207099
542.287728,2664.741391,5033.400406,-76915.987999
542.290411,148.041188,-4885.359217,-80746.465489
542.293094,1628.453072,-4293.194464,-77222.426198
542.295776,888.247130,1184.329507,-77222.426198
542.298459,444.123565,2072.576638,-78448.178995
542.301142,2072.576638,2664.741391,-76609.549800
542.303825,-148.041188,7846.182985,-80899.684589
542.306507,-2664.741391,2960.823768,-77835.302597
542.309190,5181.441594,7550.100608,-75996.673402
542.311873,-1480.411884,4589.276840,-78907.836294
542.314556,3108.864956,-6957.935855,-77835.302597
542.317239,-1184.329507,-12583.501014,-80133.589091
542.319921,444.123565,-13027.624579,-77069.207099
542.322604,2072.576638,-592.164754,-75843.454302
542.325287,1776.494261,0.000000,-79827.150892
542.327970,888.247130,-1924.535449,-77069.207099
542.330652,1332.370696,-1480.411884,-78448.178995
542.333335,3552.988522,2072.576638,-78141.740796
542.336018,-888.247130,148.041188,-77222.426198
542.338701,2664.741391,-11251.130318,-78294.959896
542.341383,1480.411884,-15248.242405,-80593.246390
542.344066,-296.082377,-6513.812290,-77069.207099
542.346749,-592.164754,-444.123565,-78448.178995
542.349432,3997.112087,296.082377,-77222.426198
542.352115,592.164754,-444.123565,-78601.398095
542.354797,-1184.329507,-5033.400406,-78448.178995
542.357480,3404.947333,-1924.535449,-76609.549800
542.360163,-3108.864956,1184.329507,-79214.274493
542.362846,2368.659014,-7550.100608,-78754.617194
542.365528,-592.164754,444.123565,-79061.055394
542.368211,5329.482782,-2664.741391,-77222.426198
542.370894,-1036.288319,-1332.370696,-77528.864398
542.373577,-6069.688724,-2812.782580,-78448.178995
542.376260,6661.853478,-4441.235652,-78294.959896
542.378942,1924.535449,-6365.771101,-79214.274493
542.381625,3849.070898,-8290.306550,-75996.673402
542.384308,-1776.494261,-1332.370696,-78448.178995
542.386991,888.247130,-4441.235652,-79061.055394
542.389673,1924.535449,-2812.782580,-76149.892501
542.392356,0.000000,-4441.235652,-79520.712692
542.395039,1036.288319,-7254.018232,-77682.083497
542.397722,1184.329507,-4145.153275,-78294.959896
542.400401,0.000000,2516.700203,-77528.864398
542.403080,-740.205942,2072.576638,-79061.055394
542.405759,5181.441594,-6217.729913,-79367.493593
542.408438,2960.823768,-5921.647536,-76762.768900
542.411118,-2960.823768,-1480.411884,-77835.302597
542.413797,5033.400406,740.205942,-80286.808190
542.416476,12435.459826,-2220.617826,-78601.398095
542.419155,-2812.782580,-296.082377,-79367.493593
542.421834,1480.411884,3108.864956,-80286.808190
542.424513,888.247130,6217.729913,-78448.178995
542.427192,3108.864956,10066.800811,-77988.521696
542.429872,-148.041188,2516.700203,-81206.122788
542.432551,888.247130,-592.164754,-77682.083497
542.435230,-1776.494261,2960.823768,-77528.864398
542.437909,-888.247130,-592.164754,-76915.987999
542.440588,-444.123565,-3701.029710,-75996.673402
542.443267,-2072.576638,-2220.617826,-80286.808190
542.445947,1332.370696,6661.853478,-77988.521696
542.448626,-296.082377,12583.501014,-78601.398095
542.451305,1776.494261,6069.688724,-78294.959896
542.453984,2516.700203,296.082377,-77835.302597
542.456663,-1924.535449,-5329.482782,-78601.398095
542.459342,-1036.288319,3849.070898,-76149.892501
542.462021,2368.659014,5921.647536,-77988.521696
542.464701,3256.906145,-3404.947333,-77835.302597
542.467380,-3108.864956,-2812.782580,-78294.959896
542.470059,-2516.700203,8586.388927,-77835.302597
542.472738,3108.864956,9030.512492,-78907.836294
542.475417,1776.494261,2072.576638,-77528.864398
542.478096,-1480.411884,1628.453072,-77682.083497
542.480776,592.164754,1332.370696,-78601.398095
542.483455,296.082377,12139.377449,-76149.892501
542.486134,1332.370696,3849.070898,-79980.369991
542.488813,-2664.741391,-5625.565159,-79673.931792
542.491492,3997.112087,-3404.947333,-77222.426198
542.494171,1924.535449,5921.647536,-78754.617194
542.496850,-148.041188,8142.265362,-77069.207099
542.499530,1332.370696,6957.935855,-78294.959896
542.502209,592.164754,-1776.494261,-79827.150892
542.504888,296.082377,888.247130,-75230.577904
542.507561,-2516.700203,6217.729913,-77682.083497
542.510233,3404.947333,2072.576638,-77375.645298
542.512906,-2220.617826,-10214.842000,-79827.150892
542.515579,-1628.453072,-14508.036463,-76915.987999
542.518251,-1776.494261,-4737.318029,-76456.330700
542.520924,5181.441594,3552.988522,-77835.302597
542.523597,-5181.441594,-5033.400406,-77069.207099
542.526269,4441.235652,592.164754,-78754.617194
542.528942,-148.041188,-1924.535449,-82431.875585
542.531615,2368.659014,3997.112087,-73851.606007
542.534287,2220.617826,-6809.894666,-79367.493593
542.536960,3404.947333,-16432.571912,-78448.178995
542.539632,-2368.659014,-9918.759623,-79520.712692
542.542305,-148.041188,-740.205942,-78907.836294
542.544978,2664.741391,1776.494261,-77682.083497
542.547650,296.082377,0.000000,-79214.274493
542.550323,148.041188,-8142.265362,-79980.369991
542.552996,3256.906145,-6217.729913,-75996.673402
542.555668,-3108.864956,2220.617826,-76762.768900
542.558341,-1776.494261,-1628.453072,-77528.864398
542.561014,2812.782580,-3108.864956,-76149.892501
542.563686,148.041188,-4737.318029,-78601.398095
542.566359,2664.741391,-3552.988522,-77069.207099
542.569032,-1036.288319,0.000000,-78141.740796
542.571704,1776.494261,-7105.977043,-77528.864398
542.574377,148.041188,-6365.771101,-76456.330700
542.577050,0.000000,-6957.935855,-79520.712692
542.579722,2516.700203,-4737.318029,-77988.521696
542.582395,-148.041188,-148.041188,-78448.178995
542.585068,2368.659014,-9770.718434,-79061.055394
542.587740,-444.123565,-10362.883188,-78754.617194
542.590413,-5033.400406,4589.276840,-77988.521696
542.593086,4589.276840,5773.606348,-78448.178995
542.595758,4441.235652,-148.041188,-79061.055394
542.598431,-3552.988522,-3256.906145,-77069.207099
542.601104,1184.329507,-13175.665768,-78907.836294
542.603776,1332.370696,-6661.853478,-76915.987999
542.606449,-1184.329507,10214.842000,-78141.740796
542.609122,1628.453072,-2368.659014,-81359.341888
542.611794,3256.906145,-2516.700203,-79061.055394
542.614457,4441.235652,10955.047942,-77835.302597
542.617119,148.041188,10214.842000,-78448.178995
542.619782,-2220.617826,9326.594869,-76456.330700
542.622444,2960.823768,-2072.576638,-80899.684589
542.625107,3997.112087,1184.329507,-77988.521696
542.627769,-3404.947333,3997.112087,-78294.959896
542.630432,-148.041188,888.247130,-76762.768900
542.633094,0.000000,-148.041188,-79214.274493
542.635757,-2516.700203,-5329.482782,-80133.589091
542.638419,2368.659014,5329.482782,-75230.577904
542.641081,-3849.070898,15248.242405,-78448.178995
542.643744,1628.453072,8734.430116,-76915.987999
542.646406,1480.411884,-2072.576638,-78294.959896
542.649069,-2220.617826,-7254.018232,-77222.426198
542.651731,-1628.453072,6809.894666,-76149.892501
542.654394,3108.864956,4145.153275,-77835.302597
542.657056,-3552.988522,-444.123565,-78141.740796
542.659719,-2072.576638,-3552.988522,-77988.521696
542.662381,3997.112087,5625.565159,-78141.740796
542.665044,0.000000,8734.430116,-77988.521696
542.667706,-296.082377,6957.935855,-77069.207099
542.670369,148.041188,592.164754,-82125.437386
542.673031,3256.906145,2368.659014,-75230.577904
542.675693,2072.576638,7254.018232,-79367.493593
542.678356,-1184.329507,1924.535449,-78448.178995
542.681018,1776.494261,-1776.494261,-76149.892501
542.683681,1776.494261,1924.535449,-79980.369991
542.686343,444.123565,6809.894666,-77835.302597
542.689006,4145.153275,8586.388927,-77682.083497
542.691668,592.164754,592.164754,-79061.055394
542.694331,296.082377,592.164754,-76456.330700
542.696993,-1924.535449,-2812.782580,-79520.712692
542.699656,4589.276840,3552.988522,-76915.987999
542.702318,-2072.576638,-1924.535449,-78294.959896
542.704981,5033.400406,-14211.954086,-77682.083497
542.707643,1628.453072,-10362.883188,-76609.549800
542.710305,-740.205942,6513.812290,-77069.207099
542.712968,-3256.906145,-6365.771101,-81052.903688
542.715630,3108.864956,5625.565159,-77528.864398
542.718293,1184.329507,-3404.947333,-81359.341888
542.720946,2072.576638,-7846.182985,-75230.577904
542.723599,-3552.988522,1924.535449,-78141.740796
542.726253,296.082377,-13619.789333,-81665.780087
542.728906,-1332.370696,-12139.377449,-77375.645298
542.731559,-1776.494261,-2516.700203,-78141.740796
542.734212,2368.659014,2516.700203,-77682.083497
542.736866,-2368.659014,-296.082377,-76915.987999
542.739519,0.000000,-6069.688724,-78141.740796
542.742172,-888.247130,-5477.523971,-78907.836294
542.744826,-3997.112087,1332.370696,-76762.768900
542.747479,148.041188,1184.329507,-77222.426198
542.750132,2516.700203,-4737.318029,-77682.083497
542.752785,5773.606348,-7698.141797,-77528.864398
542.755439,-2960.823768,-2664.741391,-77222.426198
542.758092,1184.329507,1036.288319,-78141.740796
542.760745,3701.029710,-7994.224174,-77835.302597
542.763398,-1036.288319,-8438.347739,-75843.454302
542.766052,2516.700203,-7698.141797,-79980.369991
542.768705,2368.659014,-5625.565159,-76609.549800
542.771358,-1184.329507,-148.041188,-75383.797003
542.774012,1480.411884,-9770.718434,-79520.712692
542.776665,3552.988522,-4737.318029,-78294.959896
542.779318,-148.041188,9622.677246,-75843.454302
542.781971,888.247130,3552.988522,-80593.246390
542.784625,148.041188,-9770.718434,-76915.987999
542.787278,-1776.494261,-3404.947333,-76915.987999
542.789931,-4145.153275,-13619.789333,-76762.768900
542.792584,2072.576638,2960.823768,-73391.948708
542.795238,-3552.988522,5329.482782,-80899.684589
542.797891,1924.535449,-1480.411884,-77528.864398
542.800544,148.041188,6809.894666,-77069.207099
542.803197,2220.617826,13175.665768,-77069.207099
542.805851,1332.370696,8586.388927,-78754.617194
542.808504,2368.659014,-1332.370696,-77375.645298
542.811157,1776.494261,740.205942,-76149.892501
542.813811,1776.494261,3404.947333,-78448.178995
542.816464,1924.535449,-2220.617826,-75843.454302
542.819117,888.247130,3701.029710,-78141.740796
542.821770,2368.659014,-5329.482782,-79520.712692
542.824424,5921.647536,5477.523971,-76609.549800
542.827066,-2220.617826,12879.583391,-79061.055394
542.829709,7105.977043,7550.100608,-77222.426198
542.832351,-2368.659014,-1628.453072,-80133.589091
542.834993,2664.741391,-4441.235652,-76915.987999
542.837636,740.205942,4293.194464,-77528.864398
542.840278,2516.700203,3108.864956,-78294.959896
542.842921,4589.276840,-2072.576638,-78907.836294
542.845563,1184.329507,-1332.370696,-79214.274493
542.848206,-3701.029710,8290.306550,-76149.892501
542.850848,888.247130,6809.894666,-77682.083497
542.853491,-888.247130,5329.482782,-78141.740796
542.856133,740.205942,888.247130,-78448.178995
542.858776,1332.370696,740.205942,-77069.207099
542.861418,2516.700203,2072.576638,-77375.645298
542.864060,-4145.153275,4885.359217,-76915.987999
542.866703,3552.988522,3256.906145,-77222.426198
542.869345,888.247130,2220.617826,-80440.027290
542.871988,3997.112087,3997.112087,-77069.207099
542.874630,2960.823768,6809.894666,-76456.330700
542.877273,-148.041188,-1332.370696,-77835.302597
542.879915,1480.411884,-1184.329507,-76915.987999
542.882558,888.247130,-5033.400406,-79520.712692
542.885200,-592.164754,-6217.729913,-78141.740796
542.887843,888.247130,-2072.576638,-76762.768900
542.890485,3552.988522,-5329.482782,-78907.836294
542.893127,148.041188,-3552.988522,-77988.521696
542.895770,2664.741391,-4737.318029,-77988.521696
542.898412,-6365.771101,2664.741391,-76609.549800
542.901055,3552.988522,-2516.700203,-76149.892501
542.903697,2368.659014,-9326.594869,-77682.083497
542.906340,-2960.823768,-2812.782580,-76915.987999
542.908982,148.041188,-11991.336260,-79367.493593
542.911625,3108.864956,-6069.688724,-74924.139704
542.914267,-2368.659014,-592.164754,-78294.959896
542.916910,1628.453072,-4145.153275,-78907.836294
542.919552,1036.288319,-2516.700203,-78754.617194
542.922195,1480.411884,-1776.494261,-77988.521696
542.924837,4441.235652,-2664.741391,-78294.959896
542.927479,-740.205942,0.000000,-77988.521696
542.930122,2664.741391,-3404.947333,-78601.398095
542.932754,8586.388927,-6217.729913,-77528.864398
542.935388,-2220.617826,-740.205942,-77835.302597
542.938021,-2368.659014,-2516.700203,-77988.521696
542.940655,2072.576638,-5181.441594,-78294.959896
542.943288,2220.617826,-11251.130318,-78601.398095
542.945922,1776.494261,-11103.089130,-77069.207099
542.948555,740.205942,-3256.906145,-77682.083497
542.951189,1480.411884,-10955.047942,-76762.768900
542.953822,1480.411884,1480.411884,-75383.797003
542.956456,1776.494261,2664.741391,-79367.493593
542.959089,592.164754,3404.947333,-78907.836294
542.961723,7846.182985,9474.636058,-76762.768900
542.964356,1036.288319,-11103.089130,-80899.684589
542.966989,1480.411884,-10658.965565,-76762.768900
542.969623,-3256.906145,2664.741391,-78141.740796
542.972256,9622.677246,-3256.906145,-77988.521696
542.974890,-2960.823768,1184.329507,-79214.274493
542.977523,5625.565159,6809.894666,-78448.178995
542.980157,296.082377,9622.677246,-79367.493593
542.982790,5181.441594,12287.418637,-74924.139704
542.985424,3552.988522,296.082377,-80440.027290
542.988057,1628.453072,-1332.370696,-81052.903688
542.990691,-3552.988522,2368.659014,-77682.083497
542.993324,2220.617826,296.082377,-78907.836294
542.995958,1332.370696,-1036.288319,-78754.617194
542.998591,592.164754,-3108.864956,-78294.959896
543.001225,-2812.782580,4737.318029,-77682.083497
543.003858,2072.576638,11103.089130,-77528.864398
543.006492,740.205942,8142.265362,-78907.836294
543.009125,0.000000,296.082377,-79061.055394
543.011759,-4293.194464,1036.288319,-77069.207099
543.014392,1628.453072,2072.576638,-79061.055394
543.017016,1036.288319,5625.565159,-76303.111601
543.019640,-2664.741391,-888.247130,-78907.836294
543.022264,1036.288319,888.247130,-78601.398095
543.024888,-888.247130,5625.565159,-77222.426198
543.027512,1776.494261,5625.565159,-77375.645298
543.030136,-3849.070898,6661.853478,-79520.712692
543.032760,5033.400406,-592.164754,-76303.111601
543.035384,-1036.288319,3404.947333,-80133.589091
543.038008,2220.617826,3256.906145,-77682.083497
543.040632,2220.617826,5329.482782,-77682.083497
543.043256,888.247130,6513.812290,-78754.617194
543.045880,2960.823768,-148.041188,-79367.493593
543.048504,-148.041188,-1628.453072,-79520.712692
543.051128,1628.453072,2960.823768,-76762.768900
543.053752,-740.205942,2516.700203,-78754.617194
543.056376,2220.617826,-1332.370696,-77375.645298
543.059001,740.205942,-10066.800811,-78601.398095
543.061625,-1776.494261,-5773.606348,-77069.207099
543.064249,-1628.453072,-148.041188,-75077.358804
543.066873,3701.029710,-888.247130,-75690.235202
543.069497,-148.041188,-5921.647536,-78141.740796
543.072121,2072.576638,-3997.112087,-76915.987999
543.074745,-3997.112087,4885.359217,-78907.836294
543.077369,4441.235652,-2812.782580,-76915.987999
543.079993,5181.441594,-14656.077652,-79367.493593
543.082617,-3108.864956,-7994.224174,-77988.521696
543.085241,1776.494261,-6957.935855,-79214.274493
543.087865,3404.947333,-2516.700203,-77528.864398
543.090489,2960.823768,1184.329507,-77069.207099
543.093113,592.164754,-5921.647536,-81206.122788
543.095737,740.205942,-1036.288319,-78601.398095
543.098361,6365.771101,-4293.194464,-77682.083497
543.100985,1776.494261,0.000000,-79980.369991
543.103609,-2960.823768,-1036.288319,-78294.959896
543.106233,-592.164754,-3404.947333,-78448.178995
543.108857,296.082377,-4145.153275,-80440.027290
543.111481,1924.535449,-2960.823768,-75843.454302
543.114105,-2516.700203,-1036.288319,-78294.959896
543.116729,1924.535449,-10214.842000,-79061.055394
543.119353,1924.535449,-15692.365970,-77375.645298
543.121969,-3108.864956,-6661.853478,-78907.836294
543.124584,2812.782580,-5181.441594,-77528.864398
543.127200,1480.411884,-2960.823768,-80286.808190
543.129815,592.164754,6513.812290,-77069.207099
543.132431,148.041188,3997.112087,-80899.684589
543.135047,3404.947333,-6809.894666,-77222.426198
543.137662,-148.041188,3997.112087,-76149.892501
543.140278,-4885.359217,-12731.542202,-79980.369991
543.142893,592.164754,-3701.029710,-75383.797003
543.145509,0.000000,1036.288319,-80286.808190
543.148125,2960.823768,2072.576638,-78907.836294
543.150740,-1628.453072,7994.224174,-76149.892501
543.153356,-444.123565,11695.253884,-78141.740796
543.155971,2072.576638,6957.935855,-79827.150892
543.158587,592.164754,2664.741391,-78907.836294
543.161203,-888.247130,2516.700203,-78448.178995
543.163818,2220.617826,0.000000,-77682.083497
543.166434,740.205942,-1924.535449,-77069.207099
543.169049,444.123565,-1628.453072,-79214.274493
543.171665,2072.576638,4145.153275,-78601.398095
543.174280,2516.700203,8142.265362,-78448.178995
543.176896,2960.823768,8734.430116,-77988.521696
543.179512,-1480.411884,3997.112087,-77528.864398
543.182127,2960.823768,-3997.112087,-77069.207099
543.184743,-3552.988522,888.247130,-79520.712692
543.187358,1776.494261,5921.647536,-75690.235202
543.189974,444.123565,1480.411884,-78448.178995
543.192590,-740.205942,-888.247130,-77835.302597
543.195205,-148.041188,6809.894666,-76456.330700
543.197821,-2072.576638,6957.935855,-78448.178995
543.200436,4885.359217,4885.359217,-76456.330700
543.203052,-1776.494261,2072.576638,-78601.398095
543.205668,2664.741391,-740.205942,-78907.836294
543.208283,444.123565,1924.535449,-77835.302597
543.210899,2368.659014,12879.583391,-75843.454302
543.213514,-1036.288319,6661.853478,-79673.931792
543.216130,6069.688724,-296.082377,-77375.645298
543.218746,1036.288319,-4737.318029,-79673.931792
543.221361,1924.535449,3108.864956,-77988.521696
543.223977,-4145.153275,2812.782580,-79367.493593
543.226585,3108.864956,-4145.153275,-79980.369991
543.229194,3997.112087,-10510.924376,-80746.465489
543.231802,740.205942,-9770.718434,-76762.768900
543.234411,-740.205942,4145.153275,-77528.864398
543.237019,4589.276840,3404.947333,-78448.178995
543.239628,-1776.494261,-11399.171507,-79520.712692
543.242236,-148.041188,-7994.224174,-75996.673402
543.244845,-3552.988522,7254.018232,-79367.493593
543.247453,1776.494261,-7994.224174,-79673.931792
543.250062,1924.535449,-6661.853478,-77528.864398
543.252670,-6217.729913,-12879.583391,-82278.656485
543.255279,3404.947333,-10066.800811,-76915.987999
543.257887,-1184.329507,1776.494261,-78141.740796
543.260496,1184.329507,296.082377,-78141.740796
543.263104,-2220.617826,-5477.523971,-81512.560987
543.265713,-1332.370696,-1184.329507,-78601.398095
543.268321,-2812.782580,3108.864956,-76762.768900
543.270930,2368.659014,-148.041188,-76915.987999
543.273538,-4293.194464,-4737.318029,-78754.617194
543.276147,-2368.659014,-5033.400406,-77835.302597
543.278755,2664.741391,-5625.565159,-79214.274493
543.281364,2516.700203,-3256.906145,-77375.645298
543.283972,-2516.700203,-3552.988522,-77682.083497
543.286581,1184.329507,-11843.295072,-79980.369991
543.289190,148.041188,-16580.613101,-79520.712692
543.291798,5033.400406,-3108.864956,-75690.235202
543.294407,-2072.576638,740.205942,-78601.398095
543.297015,1332.370696,10510.924376,-77069.207099
543.299624,4589.276840,-3404.947333,-80746.465489
543.302232,7698.141797,-11547.212695,-76762.768900
543.304841,740.205942,1628.453072,-74924.139704
543.307449,-6957.935855,-2368.659014,-78294.959896
543.310058,2072.576638,-13915.871710,-77988.521696
543.312666,4441.235652,-3108.864956,-79520.712692
543.315275,2812.782580,9770.718434,-77375.645298
543.317883,2960.823768,11251.130318,-76456.330700
543.320492,2368.659014,10362.883188,-77222.426198
543.323100,2368.659014,5477.523971,-77682.083497
543.325709,-2812.782580,592.164754,-79673.931792
543.328317,1628.453072,5181.441594,-75383.797003
543.330919,1628.453072,2368.659014,-77375.645298
543.333522,1924.535449,-3108.864956,-78907.836294
543.336124,-1332.370696,-4737.318029,-77222.426198
543.338726,1480.411884,8290.306550,-79061.055394
543.341329,-148.041188,8438.347739,-78141.740796
543.343931,3701.029710,7105.977043,-78448.178995
543.346533,1628.453072,740.205942,-81206.122788
543.349135,6809.894666,-3256.906145,-77988.521696
543.351738,-3256.906145,5921.647536,-79827.150892
543.354340,3404.947333,5625.565159,-77528.864398
543.356942,1776.494261,-296.082377,-78601.398095
543.359544,148.041188,-444.123565,-78448.178995
543.362147,740.205942,7846.182985,-75996.673402
543.364749,-444.123565,7846.182985,-78448.178995
543.367351,1332.370696,2960.823768,-79061.055394
543.369953,592.164754,740.205942,-78141.740796
543.372556,-1480.411884,296.082377,-78141.740796
543.375158,740.205942,10214.842000,-75996.673402
543.377760,-1480.411884,11843.295072,-77682.083497
543.380363,-740.205942,-2072.576638,-80133.589091
543.382965,2220.617826,-6069.688724,-78448.178995
543.385567,1628.453072,-592.164754,-75537.016103
543.388169,-4737.318029,8586.388927,-78448.178995
543.390772,-740.205942,-4441.235652,-78448.178995
543.393374,6661.853478,-13323.706956,-78754.617194
543.395976,1480.411884,-5625.565159,-77835.302597
543.398578,-4145.153275,1332.370696,-76915.987999
543.401181,4293.194464,4885.359217,-78601.398095
543.403783,5329.482782,-6513.812290,-80440.027290
543.406385,3701.029710,-6661.853478,-77222.426198
543.408987,-6513.812290,3108.864956,-78907.836294
543.411590,2664.741391,-3849.070898,-77835.302597
543.414192,1332.370696,-11251.130318,-78141.740796
543.416794,-5033.400406,-11251.130318,-79061.055394
543.419396,1924.535449,-11103.089130,-79827.150892
543.421999,3108.864956,3108.864956,-77222.426198
543.424601,1332.370696,-1628.453072,-75843.454302
543.427203,888.247130,-5773.606348,-79673.931792
543.429806,888.247130,-3108.864956,-78907.836294
543.432408,-296.082377,740.205942,-75690.235202
543.435003,-1332.370696,1184.329507,-77375.645298
543.437598,-1332.370696,-3849.070898,-78754.617194
543.440193,2664.741391,-8586.388927,-77528.864398
543.442788,-1628.453072,-5033.400406,-77375.645298
543.445383,-296.082377,-1924.535449,-78294.959896
543.447978,3849.070898,-7846.182985,-78294.959896
543.450573,1480.411884,-17172.777854,-79214.274493
543.453168,-148.041188,-3997.112087,-76609.549800
543.455763,2960.823768,-2368.659014,-78601.398095
543.458358,444.123565,11103.089130,-75537.016103
543.460953,740.205942,2812.782580,-80899.684589
543.463548,5921.647536,-8142.265362,-78448.178995
543.466143,1036.288319,-444.123565,-78294.959896
543.468738,-6957.935855,-3404.947333,-77528.864398
543.471333,-2960.823768,-4293.194464,-77222.426198
543.473928,3256.906145,-5477.523971,-79061.055394
543.476524,-296.082377,1480.411884,-78448.178995
543.479119,0.000000,9622.677246,-75383.797003
543.481714,-2368.659014,14804.118840,-79061.055394
543.484309,1480.411884,11103.089130,-77835.302597
543.486904,-888.247130,-4885.359217,-81052.903688
543.489499,2220.617826,4589.276840,-78294.959896
543.492094,-1776.494261,6957.935855,-78754.617194
543.494689,444.123565,740.205942,-78907.836294
543.497284,1924.535449,-9326.594869,-75537.016103
543.499879,148.041188,4441.235652,-77988.521696
543.502474,1036.288319,7846.182985,-78448.178995
543.505069,592.164754,7846.182985,-75996.673402
543.507664,1332.370696,3997.112087,-79367.493593
543.510259,888.247130,-9030.512492,-81052.903688
543.512854,-1332.370696,7994.224174,-75230.577904
543.515449,-740.205942,5773.606348,-78448.178995
543.518044,2368.659014,1924.535449,-77835.302597
543.520639,-2368.659014,0.000000,-78907.836294
543.523234,2960.823768,1776.494261,-76915.987999
543.525829,0.000000,9030.512492,-76456.330700
543.528424,3108.864956,8438.347739,-77835.302597
543.531019,1776.494261,-1332.370696,-78601.398095
543.533614,-2368.659014,6513.812290,-77375.645298
543.536209,3404.947333,8586.388927,-77988.521696
543.538799,4441.235652,592.164754,-78448.178995
543.541388,888.247130,-3108.864956,-77682.083497
543.543977,-888.247130,-5921.647536,-79827.150892
543.546566,-148.041188,-1480.411884,-78294.959896
543.549156,1924.535449,9770.718434,-77988.521696
543.551745,3552.988522,-11547.212695,-78448.178995
543.554334,-1332.370696,-7550.100608,-77682.083497
543.556923,-296.082377,-2072.576638,-80286.808190
543.559512,1924.535449,-3108.864956,-78601.398095
543.562102,-1036.288319,-444.123565,-77222.426198
543.564691,2664.741391,148.041188,-77682.083497
543.567280,-1184.329507,-5773.606348,-79520.712692
543.569869,592.164754,-4145.153275,-74924.139704
543.572459,-2220.617826,592.164754,-77835.302597
543.575048,1628.453072,-17024.736666,-79061.055394
543.577637,-1184.329507,-7105.977043,-76609.549800
543.580226,-296.082377,-2516.700203,-80286.808190
543.582815,2368.659014,4293.194464,-78601.398095
543.585405,2812.782580,-1480.411884,-78907.836294
543.587994,1480.411884,-7254.018232,-77682.083497
543.590583,-5181.441594,-3404.947333,-76762.768900
543.593172,-3108.864956,2960.823768,-77988.521696
543.595762,6365.771101,-6809.894666,-77835.302597
543.598351,-296.082377,-6513.812290,-76149.892501
543.600940,-3404.947333,-4441.235652,-78294.959896
543.603529,3849.070898,-8882.471304,-78141.740796
543.606118,0.000000,-7105.977043,-78141.740796
543.608708,1776.494261,-10807.006753,-77682.083497
543.611297,740.205942,-9770.718434,-79367.493593
543.613886,3552.988522,6513.812290,-77835.302597
543.616475,1628.453072,5181.441594,-78754.617194
543.619065,2960.823768,-740.205942,-79214.274493
543.621654,-2664.741391,-3108.864956,-80286.808190
543.624243,6957.935855,-3404.947333,-77835.302597
543.626832,-1480.411884,-6365.771101,-77988.521696
543.629421,-1332.370696,-1628.453072,-75996.673402
543.632011,-2368.659014,-3552.988522,-78601.398095
543.634600,148.041188,3849.070898,-80593.246390
543.637189,-740.205942,5773.606348,-74770.920605
543.639778,3404.947333,15100.201217,-75996.673402
543.642363,-5033.400406,5329.482782,-80286.808190
543.644948,-148.041188,-148.041188,-75537.016103
543.647532,2664.741391,4293.194464,-78907.836294
543.650117,1332.370696,2664.741391,-76303.111601
543.652702,888.247130,1184.329507,-76149.892501
543.655286,-3404.947333,-2072.576638,-79520.712692
543.657871,4737.318029,-1036.288319,-76609.549800
543.660455,740.205942,10214.842000,-78754.617194
543.663040,-1332.370696,11547.212695,-78754.617194
543.665625,2664.741391,-5329.482782,-78601.398095
543.668209,4737.318029,-1332.370696,-79061.055394
543.670794,-888.247130,1036.288319,-79367.493593
543.673379,-444.123565,8734.430116,-77835.302597
543.675963,-3256.906145,1332.370696,-80133.589091
543.678548,5921.647536,-444.123565,-77222.426198
543.681133,-3552.988522,9622.677246,-78294.959896
543.683717,1776.494261,3701.029710,-77375.645298
543.686302,3108.864956,5181.441594,-77375.645298
543.688886,-3552.988522,7254.018232,-78907.836294
543.691471,1036.288319,6069.688724,-78448.178995
543.694056,3701.029710,6365.771101,-77528.864398
543.696640,444.123565,444.123565,-77222.426198
543.699225,1036.288319,-3404.947333,-78141.740796
543.701810,-296.082377,-3108.864956,-77835.302597
543.704394,6661.853478,444.123565,-78294.959896
543.706979,-740.205942,-444.123565,-79673.931792
543.709564,-888.247130,-5773.606348,-77069.207099
543.712148,888.247130,-7105.977043,-77222.426198
543.714733,740.205942,-2664.741391,-76915.987999
543.717318,-5329.482782,-5921.647536,-76915.987999
543.719902,-1776.494261,-3404.947333,-78754.617194
543.722487,1628.453072,2368.659014,-76149.892501
543.725071,1776.494261,-4589.276840,-78448.178995
543.727656,888.247130,-13323.706956,-77222.426198
543.730241,-3256.906145,-5477.523971,-77988.521696
543.732825,4737.318029,-9178.553681,-78294.959896
543.735410,148.041188,-2960.823768,-75537.016103
543.737995,-2960.823768,2368.659014,-76609.549800
543.740579,2220.617826,-6069.688724,-78907.836294
543.743164,3108.864956,-1924.535449,-74924.139704
543.745743,-2812.782580,2368.659014,-76762.768900
543.748322,3997.112087,-3108.864956,-80440.027290
543.750902,3552.988522,-8586.388927,-78141.740796
543.753481,-1036.288319,-4145.153275,-77375.645298
543.756060,148.041188,-5477.523971,-79673.931792
543.758639,3997.112087,-10658.965565,-78448.178995
543.761219,592.164754,-15692.365970,-77682.083497
543.763798,296.082377,-11251.130318,-75230.577904
543.766377,2072.576638,3256.906145,-77682.083497
543.768956,-1924.535449,-148.041188,-77835.302597
543.771536,6661.853478,5329.482782,-75843.454302
543.774115,-3108.864956,-296.082377,-81359.341888
543.776694,7105.977043,-5773.606348,-77069.207099
543.779273,-296.082377,-1776.494261,-79061.055394
543.781853,1776.494261,-3404.947333,-77835.302597
543.784432,-1776.494261,0.000000,-80133.589091
543.787011,5181.441594,1036.288319,-77988.521696
543.789590,296.082377,7698.141797,-76915.987999
543.792170,0.000000,8586.388927,-77682.083497
543.794749,2072.576638,6365.771101,-77988.521696
543.797328,-1924.535449,2220.617826,-80133.589091
543.799908,3552.988522,1924.535449,-75996.673402
543.802487,-296.082377,2812.782580,-77528.864398
543.805066,-3552.988522,6217.729913,-75996.673402
543.807645,3404.947333,-3997.112087,-78141.740796
543.810225,1776.494261,-1332.370696,-78294.959896
543.812804,-2812.782580,10510.924376,-77222.426198
543.815383,-1184.329507,5033.400406,-79673.931792
543.817962,2072.576638,-3997.112087,-77222.426198
543.820542,-4737.318029,-1184.329507,-77069.207099
543.823121,4737.318029,-296.082377,-77988.521696
543.825700,-2072.576638,7550.100608,-78141.740796
543.828279,-148.041188,6069.688724,-76762.768900
543.830859,2812.782580,148.041188,-79980.369991
543.833438,740.205942,4589.276840,-77528.864398
543.836017,-3404.947333,9770.718434,-75383.797003
543.838596,-148.041188,11399.171507,-79980.369991
543.841176,3256.906145,1628.453072,-78448.178995
543.843755,4293.194464,5033.400406,-76456.330700
543.846334,-148.041188,2664.741391,-78907.836294
543.848909,1332.370696,-6365.771101,-76303.111601
543.851484,3108.864956,-1628.453072,-77682.083497
543.854059,-2368.659014,-1036.288319,-78448.178995
543.856634,2368.659014,-3997.112087,-77375.645298
543.859209,1480.411884,-5921.647536,-78754.617194
543.861784,3256.906145,-5477.523971,-75996.673402
543.864359,-1776.494261,-2072.576638,-77375.645298
543.866934,3256.906145,-5921.647536,-78141.740796
543.869509,2072.576638,296.082377,-78601.398095
543.872085,148.041188,-3404.947333,-79367.493593
543.874660,5477.523971,-5329.482782,-76915.987999
543.877235,1480.411884,0.000000,-77835.302597
543.879810,1776.494261,-13027.624579,-78294.959896
543.882385,0.000000,-11103.089130,-78141.740796
543.884960,-1924.535449,-1332.370696,-78601.398095
543.887535,3849.070898,3108.864956,-80593.246390
543.890110,2960.823768,-3108.864956,-79214.274493
543.892685,148.041188,-5477.523971,-78294.959896
543.895260,-296.082377,-740.205942,-77988.521696
543.897835,-3552.988522,-1776.494261,-76915.987999
543.900410,740.205942,-5477.523971,-77528.864398
543.902985,2220.617826,-10066.800811,-79367.493593
543.905560,-148.041188,-4589.276840,-78141.740796
543.908135,2072.576638,-8438.347739,-77988.521696
543.910710,1036.288319,-11103.089130,-78448.178995
543.913285,148.041188,-10807.006753,-77375.645298
543.915860,1924.535449,2368.659014,-77069.207099
543.918435,592.164754,-148.041188,-78754.617194
543.921010,1480.411884,7105.977043,-77528.864398
543.923585,-1332.370696,-3256.906145,-79520.712692
543.926160,4737.318029,-7254.018232,-75690.235202
543.928735,2516.700203,1628.453072,-77988.521696
543.931311,2072.576638,-1776.494261,-78907.836294
543.933886,-2664.741391,-296.082377,-78601.398095
543.936461,1332.370696,1332.370696,-79367.493593
543.939036,5921.647536,5033.400406,-74004.825107
543.941611,-2220.617826,11103.089130,-77375.645298
543.944186,148.041188,9622.677246,-78448.178995
543.946761,2220.617826,1924.535449,-79214.274493
543.949336,2664.741391,1776.494261,-76149.892501
543.951908,1924.535449,5625.565159,-76149.892501
543.954480,-2220.617826,3256.906145,-78294.959896
543.957052,2812.782580,-1332.370696,-77988.521696
543.959624,4885.359217,1036.288319,-77222.426198
543.962196,740.205942,2960.823768,-76303.111601
543.964768,-2072.576638,8290.306550,-77835.302597
543.967340,1332.370696,-1480.411884,-79061.055394
543.969912,4885.359217,-148.041188,-77835.302597
543.972484,1480.411884,2664.741391,-78294.959896
543.975056,1332.370696,5773.606348,-77375.645298
543.977628,1036.288319,4589.276840,-78294.959896
543.980200,1628.453072,2220.617826,-78294.959896
543.982772,3701.029710,6365.771101,-76762.768900
543.985344,888.247130,9178.553681,-79367.493593
543.987916,2220.617826,8734.430116,-77988.521696
543.990488,2368.659014,9030.512492,-77988.521696
543.993060,2516.700203,-1628.453072,-77988.521696
543.995632,2516.700203,-6217.729913,-77835.302597
543.998204,1776.494261,1480.411884,-77835.302597
544.000776,-1036.288319,-2368.659014,-77988.521696
544.003348,3997.112087,-5625.565159,-78601.398095
544.005920,148.041188,-2072.576638,-80746.465489
544.008492,3256.906145,-6217.729913,-77069.207099
544.011064,888.247130,-1776.494261,-75537.016103
544.013636,148.041188,-1184.329507,-79061.055394
544.016208,740.205942,-6217.729913,-79367.493593
544.018780,-1776.494261,-2516.700203,-78294.959896
544.021352,2516.700203,-296.082377,-77682.083497
544.023924,1036.288319,-3256.906145,-77682.083497
544.026496,-2664.741391,-11399.171507,-78754.617194
544.029068,3108.864956,-9622.677246,-78907.836294
544.031640,888.247130,-6217.729913,-79214.274493
544.034212,1036.288319,-444.123565,-75996.673402
544.036784,-296.082377,-2072.576638,-77069.207099
544.039356,-2960.823768,-5181.441594,-77069.207099
544.041928,-3256.906145,-1332.370696,-78907.836294
544.044500,4441.235652,-1332.370696,-79214.274493
544.047072,3108.864956,-3997.112087,-77835.302597
544.049644,-3108.864956,-8290.306550,-79520.712692
544.052216,1184.329507,-8586.388927,-80593.246390
544.054785,888.247130,-12435.459826,-76762.768900
544.057355,-2072.576638,-6957.935855,-74924.139704
544.059925,-2516.700203,-9326.594869,-78448.178995
544.062494,4145.153275,-2220.617826,-76915.987999
544.065064,-1776.494261,3404.947333,-78754.617194
544.067633,5329.482782,4737.318029,-76915.987999
544.070203,148.041188,-6809.894666,-79827.150892
544.072773,2960.823768,296.082377,-74158.044206
544.075342,0.000000,-2664.741391,-81052.903688
544.077912,5181.441594,-5625.565159,-77222.426198
544.080481,-592.164754,7254.018232,-77528.864398
544.083051,1776.494261,1184.329507,-81206.122788
544.085621,592.164754,6069.688724,-77222.426198
544.088190,2812.782580,9178.553681,-78294.959896
544.090760,1924.535449,3552.988522,-79520.712692
544.093329,-1480.411884,7254.018232,-77682.083497
544.095899,3108.864956,-444.123565,-78754.617194
544.098469,1776.494261,2072.576638,-76609.549800
544.101038,-1480.411884,5477.523971,-77682.083497
544.103608,1184.329507,-888.247130,-80593.246390
544.106178,888.247130,3404.947333,-75230.577904
544.108747,2812.782580,7994.224174,-78907.836294
544.111317,148.041188,148.041188,-81206.122788
544.113886,-1184.329507,1332.370696,-76762.768900
544.116456,444.123565,-148.041188,-77988.521696
544.119026,4737.318029,2072.576638,-77375.645298
544.121595,-3256.906145,4441.235652,-78141.740796
544.124165,0.000000,3552.988522,-78448.178995
544.126734,1332.370696,9030.512492,-76762.768900
544.129304,1184.329507,5921.647536,-78754.617194
544.131874,4737.318029,6217.729913,-78294.959896
544.134443,-4589.276840,12435.459826,-78754.617194
544.137010,3552.988522,1480.411884,-78601.398095
544.139576,888.247130,-6513.812290,-78907.836294
544.142142,-1332.370696,-148.041188,-76609.549800
544.144709,-1924.535449,1184.329507,-77682.083497
544.147275,5477.523971,-5033.400406,-78754.617194
544.149841,-444.123565,-3552.988522,-80440.027290
544.152408,-148.041188,-5773.606348,-78141.740796
544.154974,-5033.400406,-1332.370696,-78754.617194
544.157540,5477.523971,-1776.494261,-77222.426198
544.160107,3849.070898,-8142.265362,-79520.712692
544.162673,-3256.906145,-2368.659014,-79520.712692
544.165240,-888.247130,-888.247130,-79061.055394
544.167806,4293.194464,-4589.276840,-77375.645298
544.170372,-3404.947333,-10214.842000,-76303.111601
544.172939,444.123565,-10510.924376,-79520.712692
544.175505,1036.288319,-3701.029710,-79214.274493
544.178071,1628.453072,5477.523971,-76762.768900
544.180638,2220.617826,-3256.906145,-78601.398095
544.183204,296.082377,-5181.441594,-78907.836294
544.185770,-592.164754,-1628.453072,-77988.521696
544.188337,1628.453072,-740.205942,-78448.178995
544.190903,1332.370696,-5625.565159,-77375.645298
544.193469,888.247130,-10214.842000,-78294.959896
544.196036,2368.659014,-12287.418637,-79214.274493
544.198602,592.164754,-11103.089130,-76762.768900
544.201169,1480.411884,-8734.430116,-74464.482406
544.203735,-2812.782580,2368.659014,-77222.426198
544.206301,3849.070898,-296.082377,-77682.083497
544.208868,1628.453072,4293.194464,-77682.083497
544.211434,-444.123565,-2664.741391,-76762.768900
544.214000,4145.153275,-9326.594869,-75996.673402
544.216567,-2960.823768,2516.700203,-76609.549800
544.219133,1628.453072,-1776.494261,-78448.178995
544.221699,4441.235652,-2664.741391,-80286.808190
544.224266,-1628.453072,7846.182985,-78754.617194
544.226832,2220.617826,8290.306550,-75843.454302
544.229399,-2220.617826,3552.988522,-80286.808190
544.231965,1036.288319,7402.059420,-76456.330700
544.234531,888.247130,2812.782580,-80440.027290
544.237098,0.000000,6217.729913,-77069.207099
544.239662,-1036.288319,11103.089130,-78141.740796
544.242226,3552.988522,-6661.853478,-79980.369991
544.244790,1480.411884,-3404.947333,-76303.111601
544.247354,0.000000,9918.759623,-76915.987999
544.249918,-888.247130,296.082377,-79827.150892
544.252483,2960.823768,1924.535449,-75996.673402
544.255047,-2368.659014,296.082377,-78907.836294
544.257611,1332.370696,0.000000,-79520.712692
544.260175,3997.112087,3997.112087,-77682.083497
544.262739,1036.288319,2812.782580,-78294.959896
544.265303,-1036.288319,5329.482782,-79214.274493
544.267868,-4589.276840,11991.336260,-79520.712692
544.270432,2072.576638,10955.047942,-77375.645298
544.272996,3404.947333,6957.935855,-77069.207099
544.275560,-3997.112087,10214.842000,-78754.617194
544.278124,592.164754,-1036.288319,-77069.207099
544.280688,0.000000,-9178.553681,-77988.521696
544.283253,-2516.700203,2664.741391,-76762.768900
544.285817,-3404.947333,-148.041188,-77835.302597
544.288381,4441.235652,-10658.965565,-76303.111601
544.290945,4885.359217,-5921.647536,-77375.645298
544.293509,-3108.864956,0.000000,-78294.959896
544.296074,444.123565,-5773.606348,-75996.673402
544.298638,9030.512492,-148.041188,-76456.330700
544.301202,-1036.288319,-2516.700203,-78907.836294
544.303766,148.041188,-10510.924376,-75383.797003
544.306330,-2368.659014,1036.288319,-75537.016103
544.308894,3256.906145,1036.288319,-76915.987999
544.311459,-1036.288319,-14952.160028,-79827.150892
544.314023,3997.112087,-11843.295072,-76456.330700
544.316587,1332.370696,-740.205942,-79827.150892
544.319151,2516.700203,6661.853478,-81359.341888
544.321715,4441.235652,-2072.576638,-77682.083497
544.324279,3849.070898,-8438.347739,-76762.768900
544.326844,-2664.741391,-1628.453072,-79520.712692
544.329408,2368.659014,-444.123565,-77988.521696
544.331972,2516.700203,-4737.318029,-78294.959896
544.334536,-1184.329507,-11991.336260,-79061.055394
544.337100,1628.453072,-17468.860231,-77835.302597
544.339664,-3404.947333,-5773.606348,-79980.369991
544.342226,148.041188,-3997.112087,-76915.987999
544.344787,1924.535449,-2516.700203,-78141.740796
544.347348,-5033.400406,-296.082377,-78754.617194
544.349910,6661.853478,1332.370696,-75077.358804
544.352471,-5477.523971,-1480.411884,-79980.369991
544.355032,2812.782580,-1332.370696,-76149.892501
544.357593,2220.617826,5033.400406,-77528.864398
544.360155,-1776.494261,-2960.823768,-81206.122788
544.362716,3552.988522,888.247130,-76609.549800
544.365277,-592.164754,10510.924376,-79214.274493
544.367839,1184.329507,7550.100608,-76762.768900
544.370400,2812.782580,5329.482782,-78754.617194
544.372961,1480.411884,2960.823768,-79827.150892
544.375522,1480.411884,6957.935855,-78907.836294
544.378084,-2368.659014,1628.453072,-78601.398095
544.380645,2516.700203,1924.535449,-75383.797003
544.383206,-3108.864956,740.205942,-80593.246390
544.385768,-148.041188,-5329.482782,-78601.398095
544.388329,-2072.576638,5477.523971,-74464.482406
544.390890,-3404.947333,8290.306550,-79673.931792
544.393451,-296.082377,296.082377,-77682.083497
544.396013,888.247130,-1628.453072,-74770.920605
544.398574,-5033.400406,4737.318029,-77682.083497
544.401135,1480.411884,6513.812290,-77069.207099
544.403697,5625.565159,1332.370696,-79061.055394
544.406258,740.205942,3997.112087,-77528.864398
544.408819,-1628.453072,14211.954086,-76303.111601
544.411380,6661.853478,9770.718434,-79061.055394
544.413942,-296.082377,13471.748144,-77528.864398
544.416503,-296.082377,-296.082377,-78294.959896
544.419064,4885.359217,-12287.418637,-79827.150892
544.421626,-2960.823768,592.164754,-75843.454302
544.424187,-1628.453072,7402.059420,-78601.398095
544.426748,4737.318029,-11991.336260,-81206.122788
544.429309,3552.988522,-3849.070898,-77835.302597
544.431871,-592.164754,-3256.906145,-77528.864398
544.434432,1628.453072,-7105.977043,-76149.892501
544.436993,592.164754,4737.318029,-76915.987999
544.439555,1628.453072,-10658.965565,-81359.341888
544.442116,-1036.288319,-8290.306550,-75383.797003
544.444675,-296.082377,0.000000,-76149.892501
544.447234,6661.853478,-2812.782580,-80593.246390
544.449793,-1628.453072,-11547.212695,-76915.987999
544.452353,148.041188,-12139.377449,-77222.426198
544.454912,1776.494261,-6661.853478,-79367.493593
544.457471,-1776.494261,6957.935855,-75537.016103
544.460030,-148.041188,-1036.288319,-79214.274493
544.462590,3701.029710,-9474.636058,-79520.712692
544.465149,1776.494261,-888.247130,-76915.987999
544.467708,-1628.453072,-592.164754,-80133.589091
544.470267,2072.576638,-5181.441594,-78601.398095
544.472826,1036.288319,-13323.706956,-78907.836294
544.475386,3108.864956,-17320.819043,-79214.274493
544.477945,-7105.977043,-6069.688724,-77682.083497
544.480504,740.205942,3849.070898,-77682.083497
544.483063,4589.276840,-6957.935855,-77528.864398
544.485623,-444.123565,1332.370696,-76303.111601
544.488182,-11547.212695,-2220.617826,-80286.808190
544.490741,3404.947333,-296.082377,-74924.139704
544.493300,296.082377,-888.247130,-77988.521696
544.495859,2220.617826,-1924.535449,-76609.549800
544.498419,-3997.112087,-148.041188,-79980.369991
544.500978,3256.906145,2072.576638,-77988.521696
544.503537,888.247130,8586.388927,-74158.044206
544.506096,1480.411884,14508.036463,-78294.959896
544.508655,-1036.288319,-1480.411884,-79827.150892
544.511215,4589.276840,3404.947333,-76456.330700
544.513774,0.000000,6365.771101,-77835.302597
544.516333,3256.906145,8734.430116,-75537.016103
544.518892,888.247130,-888.247130,-77682.083497
544.521452,5181.441594,-4293.194464,-77835.302597
544.524011,3108.864956,3997.112087,-79061.055394
544.526570,-2220.617826,5921.647536,-78448.178995
544.529129,1480.411884,2812.782580,-76456.330700
544.531688,6957.935855,-3997.112087,-78294.959896
544.534248,0.000000,296.082377,-77682.083497
544.536807,-5329.482782,6365.771101,-76456.330700
544.539366,148.041188,12435.459826,-78601.398095
544.541925,5921.647536,-1036.288319,-80593.246390
544.544485,-1184.329507,11399.171507,-75843.454302
544.547043,296.082377,14952.160028,-79827.150892
544.549601,3404.947333,7846.182985,-79367.493593
544.552159,-888.247130,4293.194464,-76456.330700
544.554717,0.000000,-5625.565159,-79520.712692
544.557275,444.123565,-7550.100608,-78448.178995
544.559833,-1036.288319,-148.041188,-74770.920605
544.562392,1776.494261,-5625.565159,-78601.398095
544.564950,5921.647536,-7550.100608,-80133.589091
544.567508,-1480.411884,-6365.771101,-77222.426198
544.570066,3701.029710,1036.288319,-77069.207099
544.572624,2220.617826,-2220.617826,-78907.836294
544.575182,4293.194464,-6957.935855,-77835.302597
544.577740,-2220.617826,-6069.688724,-78601.398095
544.580299,3404.947333,-3552.988522,-76762.768900
544.582857,4145.153275,-6809.894666,-77988.521696
544.585415,-1924.535449,-8882.471304,-77988.521696
544.587973,1480.411884,-10362.883188,-77988.521696
544.590531,2072.576638,-2960.823768,-79214.274493
544.593089,3997.112087,5921.647536,-75843.454302
544.595647,-444.123565,-4145.153275,-80440.027290
544.598206,-2368.659014,-5181.441594,-79367.493593
544.600764,7254.018232,-5033.400406,-76915.987999
544.603322,1332.370696,-6365.771101,-77682.083497
544.605880,-3552.988522,-8142.265362,-76762.768900
544.608438,1184.329507,-15840.407159,-77528.864398
544.610996,1480.411884,-15840.407159,-79061.055394
544.613554,-592.164754,2516.700203,-75383.797003
544.616113,-1628.453072,3701.029710,-81206.122788
544.618671,5181.441594,-4293.194464,-77528.864398
544.621229,2516.700203,-1924.535449,-76609.549800
544.623787,-1184.329507,-3849.070898,-79367.493593
544.626345,-3108.864956,-1924.535449,-75230.577904
544.628903,-1628.453072,3701.029710,-77222.426198
544.631461,1628.453072,148.041188,-81359.341888
544.634020,4737.318029,-3849.070898,-78294.959896
544.636578,-1776.494261,8290.306550,-77069.207099
544.639136,148.041188,16876.695478,-78294.959896
544.641694,148.041188,740.205942,-79214.274493
544.644252,3552.988522,1036.288319,-77988.521696
544.646810,592.164754,8586.388927,-80440.027290
544.649322,1036.288319,12139.377449,-79214.274493
544.651834,1036.288319,148.041188,-76609.549800
544.654346,1480.411884,-1036.288319,-76149.892501
544.656858,-3552.988522,-3552.988522,-79673.931792
544.659370,1776.494261,3701.029710,-75690.235202
544.661882,-1036.288319,7105.977043,-76303.111601
544.664394,888.247130,-4441.235652,-77988.521696
544.666906,-2072.576638,592.164754,-77069.207099
544.669418,1480.411884,4293.194464,-78448.178995
544.671930,-148.041188,9030.512492,-76915.987999
544.674442,5329.482782,5773.606348,-79061.055394
544.676954,-296.082377,7105.977043,-78907.836294
544.679466,-592.164754,15544.324782,-77835.302597
544.681978,8882.471304,5625.565159,-79980.369991
544.684490,-2220.617826,2220.617826,-77375.645298
544.687002,1184.329507,-1480.411884,-77835.302597
544.689514,4885.359217,-11547.212695,-79367.493593
544.692026,1184.329507,1332.370696,-75843.454302
544.694538,592.164754,-3997.112087,-76149.892501
544.697050,148.041188,-11103.089130,-79520.712692
544.699562,592.164754,1776.494261,-75537.016103
544.702074,2368.659014,-2960.823768,-78601.398095
544.704586,5477.523971,-4293.194464,-77835.302597
544.707098,-4293.194464,0.000000,-78754.617194
544.709610,4885.359217,-9622.677246,-76456.330700
544.712122,-888.247130,-4589.276840,-76609.549800
544.714634,1776.494261,0.000000,-77682.083497
544.717146,296.082377,-8290.306550,-80133.589091
544.719658,3849.070898,-10807.006753,-78294.959896
544.722170,3108.864956,-2812.782580,-75996.673402
544.724682,-2960.823768,1776.494261,-80133.589091
544.727194,2368.659014,-5181.441594,-79980.369991
544.729706,6217.729913,-3997.112087,-77528.864398
544.732218,-1036.288319,-740.205942,-77988.521696
544.734730,296.082377,-3552.988522,-79061.055394
544.737242,1332.370696,-11399.171507,-79827.150892
544.739754,2960.823768,-12879.583391,-75996.673402
544.742266,-888.247130,-10658.965565,-78907.836294
544.744778,-296.082377,-592.164754,-78754.617194
544.747290,1184.329507,1776.494261,-78448.178995
544.749812,6069.688724,-1332.370696,-79673.931792
544.752333,-1036.288319,-6661.853478,-80440.027290
544.754854,5329.482782,-2664.741391,-76456.330700
544.757376,-7402.059420,4293.194464,-76762.768900
544.759897,3404.947333,-1332.370696,-78294.959896
544.762418,2812.782580,-4441.235652,-78294.959896
544.764940,-4293.194464,5773.606348,-79367.493593
544.767461,2072.576638,8290.306550,-74770.920605
544.769982,1332.370696,9918.759623,-77222.426198
544.772503,-3701.029710,5181.441594,-78294.959896
544.775025,-2368.659014,-1332.370696,-79980.369991
544.777546,296.082377,2812.782580,-75230.577904
544.780067,296.082377,15544.324782,-76149.892501
544.782589,-1480.411884,1924.535449,-79980.369991
544.785110,296.082377,-5921.647536,-76303.111601
544.787631,1480.411884,2072.576638,-75383.797003
544.790153,444.123565,4441.235652,-78907.836294
544.792674,-740.205942,3404.947333,-77222.426198
544.795195,1924.535449,1332.370696,-78141.740796
544.797717,3256.906145,-1036.288319,-78601.398095
544.800238,-1776.494261,7994.224174,-77375.645298
544.802759,2072.576638,7846.182985,-77682.083497
544.805281,1036.288319,7846.182985,-79520.712692
544.807802,444.123565,11399.171507,-77222.426198
544.810323,5033.400406,6365.771101,-79520.712692
544.812845,-296.082377,3256.906145,-78294.959896
544.815366,-2664.741391,-2812.782580,-78141.740796
544.817887,3404.947333,-7994.224174,-77222.426198
544.820408,-3256.906145,-1628.453072,-77069.207099
544.822930,2664.741391,-7402.059420,-78907.836294
544.825451,-444.123565,-4589.276840,-79827.150892
544.827972,-888.247130,-1036.288319,-76609.549800
544.830494,4885.359217,-1036.288319,-77222.426198
544.833015,1332.370696,-4737.318029,-77988.521696
544.835536,1332.370696,-4885.359217,-76609.549800
544.838058,2664.741391,-1924.535449,-78294.959896
544.840579,2960.823768,-6069.688724,-76149.892501
544.843100,444.123565,-4589.276840,-77835.302597
544.845622,1924.535449,-9030.512492,-79367.493593
544.848143,5329.482782,-12287.418637,-76303.111601
544.850629,1036.288319,3404.947333,-77682.083497
544.853115,-888.247130,-2368.659014,-78141.740796
544.855601,3404.947333,-6957.935855,-78141.740796
544.858086,-1628.453072,-6809.894666,-79367.493593
544.860572,0.000000,-1924.535449,-77528.864398
544.863058,-1776.494261,-2812.782580,-79673.931792
544.865544,5181.441594,-18357.107362,-75843.454302
544.868030,-5181.441594,-10510.924376,-77222.426198
544.870516,-2220.617826,-1628.453072,-75077.358804
544.873002,4885.359217,-2072.576638,-77528.864398
544.875487,3108.864956,2072.576638,-77222.426198
544.877973,148.041188,-2220.617826,-76456.330700
544.880459,-1628.453072,-4293.194464,-79827.150892
544.882945,-592.164754,-5625.565159,-75230.577904
544.885431,6809.894666,11399.171507,-77069.207099
544.887917,3404.947333,-1776.494261,-80899.684589
544.890403,888.247130,-444.123565,-74924.139704
544.892888,2072.576638,9178.553681,-80593.246390
544.895374,-148.041188,8290.306550,-78601.398095
544.897860,4441.235652,7105.977043,-76762.768900
544.900346,1332.370696,-296.082377,-80746.465489
544.902832,5181.441594,3108.864956,-77835.302597
544.905318,-296.082377,6365.771101,-79367.493593
544.907804,-1184.329507,10955.047942,-75383.797003
544.910289,740.205942,1924.535449,-78141.740796
544.912775,-1924.535449,-5329.482782,-77682.083497
544.915261,-2516.700203,3997.112087,-75077.358804
544.917747,1480.411884,7105.977043,-76915.987999
544.920233,592.164754,-2368.659014,-76915.987999
544.922719,-5477.523971,2812.782580,-74924.139704
544.925205,740.205942,3701.029710,-79673.931792
544.927691,4145.153275,6217.729913,-77222.426198
544.930176,0.000000,15100.201217,-75383.797003
544.932662,1332.370696,9326.594869,-79520.712692
544.935148,-296.082377,10066.800811,-78601.398095
544.937634,1480.411884,3849.070898,-78294.959896
544.940120,2220.617826,-7254.018232,-77375.645298
544.942606,740.205942,-1184.329507,-75996.673402
544.945092,-1036.288319,-3108.864956,-78448.178995
544.947577,5773.606348,-7846.182985,-77988.521696
544.950079,-1332.370696,-7402.059420,-79367.493593
544.952580,-2368.659014,-1036.288319,-78754.617194
544.955082,-3256.906145,296.082377,-76149.892501
544.957584,1628.453072,-4589.276840,-78141.740796
544.960085,444.123565,-5181.441594,-78141.740796
544.962587,4885.359217,-3108.864956,-78141.740796
544.965089,-2220.617826,-1924.535449,-78294.959896
544.967590,1036.288319,-3404.947333,-77222.426198
544.970092,592.164754,-13767.830521,-79367.493593
544.972594,3404.947333,-10658.965565,-78141.740796
544.975095,1924.535449,-740.205942,-74311.263306
544.977597,-3701.029710,3108.864956,-77988.521696
544.980099,3404.947333,-5625.565159,-79367.493593
544.982601,6809.894666,-8438.347739,-77069.207099
544.985102,-1480.411884,-1924.535449,-77682.083497
544.987604,-1924.535449,-2220.617826,-78907.836294
544.990106,5329.482782,-18061.024985,-80746.465489
544.992607,-1480.411884,-11103.089130,-75537.016103
544.995109,1036.288319,-6957.935855,-78141.740796
544.997611,1924.535449,3552.988522,-80899.684589
545.000112,3849.070898,1036.288319,-78907.836294
545.002614,-1036.288319,-8290.306550,-79061.055394
545.005116,-888.247130,-1924.535449,-78601.398095
545.007617,148.041188,1776.494261,-77222.426198
545.010119,1036.288319,3256.906145,-76303.111601
545.012621,-1036.288319,4589.276840,-78754.617194
545.015122,1924.535449,-3108.864956,-78907.836294
545.017624,3256.906145,9622.677246,-76149.892501
545.020126,-1628.453072,11251.130318,-78754.617194
545.022627,4293.194464,6217.729913,-77528.864398
545.025129,1628.453072,-1480.411884,-79980.369991
545.027631,2664.741391,4885.359217,-77069.207099
545.030132,2220.617826,10955.047942,-78754.617194
545.032634,1924.535449,6513.812290,-76149.892501
545.035136,740.205942,-1480.411884,-77835.302597
545.037637,1480.411884,-4885.359217,-79214.274493
545.040139,-2368.659014,3256.906145,-79367.493593
545.042641,2812.782580,5625.565159,-77528.864398
545.045142,3108.864956,1776.494261,-77069.207099
545.047644,-2812.782580,-1036.288319,-78294.959896
545.050159,-3404.947333,5921.647536,-79520.712692
545.052675,-592.164754,14063.912898,-76609.549800
545.055190,2812.782580,13767.830521,-77528.864398
545.057705,444.123565,11547.212695,-79214.274493
545.060220,2072.576638,2516.700203,-78448.178995
545.062736,-2072.576638,-2072.576638,-79214.274493
545.065251,2072.576638,296.082377,-75077.358804
545.067766,-5625.565159,-4589.276840,-77835.302597
545.070282,888.247130,-5329.482782,-78141.740796
545.072797,-3404.947333,-5773.606348,-80593.246390
545.075312,6957.935855,-11991.336260,-77835.302597
545.077827,-2220.617826,6661.853478,-76609.549800
545.080343,-4293.194464,-2072.576638,-81052.903688
545.082858,1184.329507,-11991.336260,-79520.712692
545.085373,1776.494261,2072.576638,-78907.836294
545.087888,1480.411884,-3701.029710,-78294.959896
545.090404,-3849.070898,740.205942,-78448.178995
545.092919,-1480.411884,-7994.224174,-77069.207099
545.095434,3849.070898,-14656.077652,-78601.398095
545.097950,-1036.288319,1184.329507,-74617.701505
545.100465,-1184.329507,-296.082377,-76456.330700
545.102980,-2516.700203,-3404.947333,-76456.330700
545.105495,-2072.576638,-8142.265362,-76915.987999
545.108011,4293.194464,-9474.636058,-77375.645298
545.110526,-4885.359217,592.164754,-77069.207099
545.113041,2812.782580,-8290.306550,-77528.864398
545.115556,6365.771101,-16876.695478,-79673.931792
545.118072,1924.535449,-11103.089130,-77528.864398
545.120587,-8734.430116,10955.047942,-76915.987999
545.123102,10066.800811,-1776.494261,-81052.903688
545.125618,11399.171507,-11547.212695,-76456.330700
545.128133,-2516.700203,3256.906145,-79061.055394
545.130648,-2220.617826,-4441.235652,-79827.150892
545.133163,6217.729913,10214.842000,-72779.072310
545.135679,1924.535449,6365.771101,-78754.617194
545.138194,5477.523971,-296.082377,-79367.493593
545.140709,-6513.812290,2812.782580,-77835.302597
545.143224,3256.906145,12879.583391,-76609.549800
545.145740,3108.864956,5477.523971,-79061.055394
545.148255,-4145.153275,1332.370696,-78448.178995
545.150740,740.205942,4885.359217,-80286.808190
545.153226,3108.864956,4145.153275,-77375.645298
545.155711,-740.205942,9030.512492,-75383.797003
545.158197,592.164754,-444.123565,-78907.836294
545.160682,-888.247130,-2072.576638,-80440.027290
545.163167,1924.535449,1628.453072,-77835.302597
545.165653,444.123565,8438.347739,-76303.111601
545.168138,-1332.370696,3552.988522,-77682.083497
545.170624,-2220.617826,-888.247130,-79673.931792
545.173109,1776.494261,3552.988522,-78141.740796
545.175594,-148.041188,7994.224174,-76915.987999
545.178080,-1184.329507,21021.848753,-76456.330700
545.180565,-1036.288319,14508.036463,-79980.369991
545.183051,4589.276840,-3404.947333,-79367.493593
545.185536,-1036.288319,-6809.894666,-78448.178995
545.188021,-444.123565,3256.906145,-77528.864398
545.190507,-3849.070898,-1776.494261,-77222.426198
545.192992,2072.576638,-9918.759623,-77528.864398
545.195477,4145.153275,-10658.965565,-80286.808190
545.197963,-2220.617826,-3552.988522,-78448.178995
545.200448,-3108.864956,4293.194464,-75077.358804
545.202934,1184.329507,-1628.453072,-79673.931792
545.205419,2960.823768,-9918.759623,-78294.959896
545.207904,1924.535449,-5625.565159,-75383.797003
545.210390,592.164754,-296.082377,-76915.987999
545.212875,1184.329507,-1036.288319,-77069.207099
545.215361,1184.329507,-16284.530724,-79061.055394
545.217846,740.205942,-12435.459826,-76762.768900
545.220331,1036.288319,2516.700203,-76762.768900
545.222817,5181.441594,3404.947333,-76762.768900
545.225302,3701.029710,-8142.265362,-79214.274493
545.227788,5773.606348,-10066.800811,-78294.959896
545.230273,-3404.947333,-5033.400406,-79214.274493
545.232758,4885.359217,-8734.430116,-78754.617194
545.235244,1776.494261,-13915.871710,-77988.521696
545.237729,1332.370696,-7550.100608,-76456.330700
545.240215,2664.741391,-6365.771101,-78141.740796
545.242700,888.247130,1776.494261,-78448.178995
545.245185,6217.729913,1924.535449,-79061.055394
545.247671,-3701.029710,-3997.112087,-81359.341888
545.250174,-296.082377,-740.205942,-77222.426198
545.252678,1776.494261,9622.677246,-77222.426198
545.255181,1036.288319,740.205942,-79827.150892
545.257684,1184.329507,4145.153275,-77682.083497
545.260188,-888.247130,2664.741391,-80440.027290
545.262691,3404.947333,5181.441594,-76303.111601
545.265195,1036.288319,6957.935855,-77835.302597
545.267698,-1036.288319,5181.441594,-78754.617194
545.270201,1628.453072,2960.823768,-78294.959896
545.272705,-592.164754,3256.906145,-79827.150892
545.275208,1332.370696,10066.800811,-77069.207099
545.277711,1480.411884,2368.659014,-78601.398095
545.280215,-2960.823768,-3849.070898,-76456.330700
545.282718,-2072.576638,-740.205942,-76609.549800
545.285222,2664.741391,5773.606348,-78907.836294
545.287725,1924.535449,5329.482782,-76456.330700
545.290228,1776.494261,-148.041188,-76762.768900
545.292732,-1480.411884,6513.812290,-78448.178995
545.295235,-148.041188,10066.800811,-78448.178995
545.297739,4145.153275,15248.242405,-76762.768900
545.300242,-2072.576638,17912.983796,-78141.740796
545.302745,2072.576638,0.000000,-77682.083497
545.305249,-148.041188,-8882.471304,-78141.740796
545.307752,888.247130,-888.247130,-77069.207099
545.310256,-4885.359217,2812.782580,-78448.178995
545.312759,3701.029710,-11991.336260,-79061.055394
545.315262,444.123565,-13323.706956,-78294.959896
545.317766,740.205942,-3701.029710,-76149.892501
545.320269,-1776.494261,1184.329507,-75690.235202
545.322772,1776.494261,4737.318029,-78601.398095
545.325276,3997.112087,-15692.365970,-80133.589091
545.327779,4293.194464,-6069.688724,-77222.426198
545.330283,-5477.523971,5477.523971,-78601.398095
545.332786,7254.018232,-8142.265362,-78448.178995
545.335289,740.205942,-14508.036463,-77835.302597
545.337793,148.041188,-8586.388927,-78754.617194
545.340296,3404.947333,1332.370696,-79827.150892
545.342800,1036.288319,2368.659014,-76303.111601
545.345303,2368.659014,-6957.935855,-77835.302597
545.347806,3701.029710,-7994.224174,-80593.246390
545.350325,1776.494261,-5329.482782,-76609.549800
545.352843,2072.576638,-8438.347739,-80593.246390
545.355361,1480.411884,-8882.471304,-78448.178995
545.357880,-740.205942,-11399.171507,-77988.521696
545.360398,296.082377,-2960.823768,-76915.987999
545.362916,-2516.700203,6513.812290,-78601.398095
545.365435,3108.864956,-6365.771101,-77069.207099
545.367953,-148.041188,-9918.759623,-77835.302597
545.370471,-5033.400406,5033.400406,-76609.549800
545.372990,444.123565,1184.329507,-77988.521696
545.375508,296.082377,7254.018232,-77835.302597
545.378026,1776.494261,7846.182985,-76456.330700
545.380545,740.205942,5181.441594,-76456.330700
545.383063,0.000000,1184.329507,-76609.549800
545.385581,0.000000,7402.059420,-77682.083497
545.388100,1332.370696,-444.123565,-79673.931792
545.390618,-1924.535449,7254.018232,-77069.207099
545.393136,1332.370696,6217.729913,-77222.426198
545.395655,3552.988522,6069.688724,-76762.768900
545.398173,740.205942,1332.370696,-78754.617194
545.400691,4441.235652,-2072.576638,-79214.274493
545.403210,2220.617826,4737.318029,-78754.617194
545.405728,-1480.411884,5625.565159,-77222.426198
545.408246,1480.411884,3404.947333,-78294.959896
545.410764,2220.617826,3701.029710,-77835.302597
545.413283,-740.205942,7846.182985,-76303.111601
545.415801,2368.659014,14211.954086,-78294.959896
545.418319,148.041188,18209.066173,-79061.055394
545.420838,3997.112087,4885.359217,-77682.083497
545.423356,0.000000,-8882.471304,-78907.836294
545.425874,1332.370696,-2072.576638,-78141.740796
545.428393,-888.247130,888.247130,-77375.645298
545.430923,2812.782580,-9622.677246,-78294.959896
545.433453,-1036.288319,-8882.471304,-79673.931792
545.435983,2220.617826,-10955.047942,-78907.836294
545.438513,1332.370696,2664.741391,-75690.235202
545.441043,-3108.864956,4885.359217,-78448.178995
545.443573,3256.906145,-11251.130318,-78907.836294
545.446103,7254.018232,-10362.883188,-78907.836294
545.448633,-3997.112087,3701.029710,-76609.549800
545.451163,1628.453072,-5329.482782,-76609.549800
545.453693,1480.411884,-15840.407159,-75996.673402
545.456223,2664.741391,-11399.171507,-77069.207099
545.458753,888.247130,3849.070898,-80746.465489
545.461282,5477.523971,2664.741391,-79061.055394
545.463812,5477.523971,-5773.606348,-76915.987999
545.466342,2812.782580,-10955.047942,-79367.493593
545.468872,-3404.947333,-5181.441594,-78448.178995
545.471402,-3108.864956,-8290.306550,-80133.589091
545.473932,12435.459826,-14508.036463,-77375.645298
545.476462,-888.247130,-3997.112087,-79367.493593
545.478992,-3256.906145,-2960.823768,-80593.246390
545.481522,6217.729913,-148.041188,-78294.959896
545.484052,888.247130,-5329.482782,-79673.931792
545.486582,1332.370696,-8586.388927,-77222.426198
545.489112,148.041188,3997.112087,-77069.207099
545.491642,-1628.453072,7402.059420,-79214.274493
545.494172,3404.947333,1036.288319,-77528.864398
545.496702,-2072.576638,5181.441594,-79367.493593
545.499232,444.123565,6365.771101,-74924.139704
545.501762,1036.288319,4293.194464,-75843.454302
545.504292,888.247130,6217.729913,-77835.302597
545.506822,-1184.329507,-888.247130,-78294.959896
545.509352,888.247130,7550.100608,-75996.673402
545.511882,1628.453072,10214.842000,-77375.645298
545.514412,2072.576638,2812.782580,-79980.369991
545.516942,1776.494261,-296.082377,-78294.959896
545.519472,5033.400406,740.205942,-76915.987999
545.522002,-444.123565,4145.153275,-77682.083497
545.524532,-1628.453072,3997.112087,-77988.521696
545.527062,3404.947333,2220.617826,-78448.178995
545.529592,3701.029710,6513.812290,-79214.274493
545.532131,1480.411884,9622.677246,-76303.111601
545.534671,0.000000,16432.571912,-77375.645298
545.537210,740.205942,12879.583391,-79367.493593
545.539749,4293.194464,-888.247130,-78294.959896
545.542288,-2220.617826,-4885.359217,-77222.426198
545.544828,3256.906145,-3108.864956,-74924.139704
545.547367,1184.329507,-2220.617826,-78448.178995
545.549906,-740.205942,-7402.059420,-78141.740796
545.552445,3997.112087,-13027.624579,-79061.055394
545.554985,740.205942,-6957.935855,-79520.712692
545.557524,1480.411884,5329.482782,-75843.454302
545.560063,-1184.329507,-2220.617826,-81052.903688
545.562603,4737.318029,-14359.995275,-78448.178995
545.565142,444.123565,-2664.741391,-77528.864398
545.567681,-1924.535449,888.247130,-80440.027290
545.570220,3108.864956,-7846.182985,-76915.987999
545.572760,0.000000,-9030.512492,-79214.274493
545.575299,-592.164754,-10214.842000,-78754.617194
545.577838,740.205942,1036.288319,-79367.493593
545.580377,0.000000,-888.247130,-75843.454302
545.582917,2368.659014,-11991.336260,-78448.178995
545.585456,-5477.523971,-4293.194464,-77682.083497
545.587995,444.123565,-11103.089130,-78907.836294
545.590534,1184.329507,-12731.542202,-76456.330700
545.593074,-2812.782580,-2220.617826,-75690.235202
545.595613,1184.329507,-11251.130318,-78907.836294
545.598152,1628.453072,2072.576638,-78448.178995
545.600692,-1184.329507,-3701.029710,-77375.645298
545.603231,2516.700203,-4293.194464,-77069.207099
545.605770,-3256.906145,1036.288319,-79367.493593
545.608309,592.164754,5773.606348,-76149.892501
545.610849,296.082377,1184.329507,-79367.493593
545.613388,1924.535449,7698.141797,-77835.302597
545.615927,1184.329507,4589.276840,-77222.426198
545.618466,-1776.494261,7105.977043,-77682.083497
545.621006,-1036.288319,3404.947333,-78754.617194
545.623545,296.082377,3108.864956,-78601.398095
545.626084,-592.164754,7105.977043,-77835.302597
545.628624,5033.400406,6661.853478,-75843.454302
545.631163,-1628.453072,6957.935855,-78448.178995
545.633710,-1036.288319,-5033.400406,-78448.178995
545.636257,1036.288319,2220.617826,-76149.892501
545.638804,296.082377,4737.318029,-79367.493593
545.641351,1924.535449,1924.535449,-76609.549800
545.643898,1924.535449,3404.947333,-78448.178995
545.646445,-592.164754,7254.018232,-78601.398095
545.648992,2664.741391,13175.665768,-76915.987999
545.651539,888.247130,13915.871710,-78907.836294
545.654086,5033.400406,11547.212695,-76609.549800
545.656634,592.164754,296.082377,-79520.712692
545.659181,2072.576638,-6513.812290,-77835.302597
545.661728,-2368.659014,0.000000,-76762.768900
545.664275,1036.288319,-1776.494261,-80593.246390
545.666822,1184.329507,-14359.995275,-80440.027290
545.669369,1332.370696,-10807.006753,-75996.673402
545.671916,740.205942,-592.164754,-77222.426198
545.674463,1036.288319,-1332.370696,-74464.482406
545.677010,1776.494261,-2960.823768,-77375.645298
545.679557,-1184.329507,-5181.441594,-80133.589091
545.682104,1628.453072,-5625.565159,-75843.454302
545.684651,-2960.823768,296.082377,-80133.589091
545.687198,5477.523971,-5921.647536,-77222.426198
545.689745,-1332.370696,-10807.006753,-79673.931792
545.692292,1184.329507,-2220.617826,-79827.150892
545.694840,6513.812290,-4737.318029,-77835.302597
545.697387,-6957.935855,-1332.370696,-77069.207099
545.699934,3256.906145,-9030.512492,-77528.864398
545.702481,3256.906145,-11547.212695,-77988.521696
545.705028,-5181.441594,-2516.700203,-76609.549800
545.707575,-1036.288319,-13915.871710,-81512.560987
545.710122,5477.523971,-5773.606348,-75383.797003
545.712669,-296.082377,-2368.659014,-76609.549800
545.715216,6365.771101,-4293.194464,-79520.712692
545.717763,-3552.988522,-4885.359217,-78754.617194
545.720310,1184.329507,740.205942,-76149.892501
545.722857,5477.523971,3404.947333,-78294.959896
545.725404,3552.988522,7550.100608,-78448.178995
545.727951,-3404.947333,2072.576638,-79980.369991
545.730499,4441.235652,4885.359217,-76762.768900
545.733046,-740.205942,7550.100608,-76456.330700
545.735599,2664.741391,2516.700203,-78754.617194
545.738153,1776.494261,2072.576638,-77375.645298
545.740706,1036.288319,1480.411884,-78141.740796
545.743260,-888.247130,9770.718434,-76609.549800
545.745813,4737.318029,7402.059420,-77682.083497
545.748367,-148.041188,1036.288319,-77988.521696
545.750920,1184.329507,-3108.864956,-77988.521696
545.753474,3997.112087,3404.947333,-76762.768900
545.756027,2960.823768,5921.647536,-79673.931792
545.758581,3108.864956,444.123565,-76456.330700
545.761134,-5033.400406,6661.853478,-79061.055394
545.763688,4589.276840,8734.430116,-78754.617194
545.766241,888.247130,16284.530724,-76762.768900
545.768794,1036.288319,14656.077652,-78754.617194
545.771348,-444.123565,3256.906145,-81359.341888
545.773901,3849.070898,-7254.018232,-77375.645298
545.776455,592.164754,-444.123565,-76303.111601
545.779008,-3701.029710,-592.164754,-79673.931792
545.781562,2220.617826,-9326.594869,-77222.426198
545.784115,5477.523971,-16432.571912,-78141.740796
545.786669,1332.370696,-3849.070898,-76456.330700
545.789222,-3256.906145,2516.700203,-77835.302597
545.791776,6513.812290,-1332.370696,-77375.645298
545.794329,-148.041188,-6069.688724,-81818.999186
545.796883,6661.853478,-8586.388927,-77528.864398
545.799436,-3552.988522,444.123565,-78294.959896
545.801990,-3849.070898,-4293.194464,-76456.330700
545.804543,4441.235652,-15100.201217,-78141.740796
545.807097,-2368.659014,-8882.471304,-77988.521696
545.809650,-4589.276840,4589.276840,-75843.454302
545.812204,1332.370696,-3404.947333,-82278.656485
545.814757,2368.659014,-8882.471304,-76762.768900
545.817311,-2960.823768,-5773.606348,-77988.521696
545.819864,5625.565159,-17024.736666,-79367.493593
545.822418,-3256.906145,-5921.647536,-76609.549800
545.824971,-148.041188,-740.205942,-75996.673402
545.827525,1480.411884,-7846.182985,-78754.617194
545.830078,4589.276840,-5921.647536,-77682.083497
545.832632,-296.082377,-3404.947333,-78907.836294
545.835185,-592.164754,-1184.329507,-75077.358804
545.837706,2812.782580,8142.265362,-77222.426198
545.840227,1776.494261,7402.059420,-80440.027290
545.842749,1332.370696,444.123565,-77375.645298
545.845270,1480.411884,5773.606348,-78448.178995
545.847791,1628.453072,10362.883188,-77835.302597
545.850312,1628.453072,1036.288319,-76762.768900
545.852833,740.205942,2516.700203,-80593.246390
545.855354,3552.988522,4293.194464,-79367.493593
545.857875,2516.700203,9326.594869,-77222.426198
545.860397,-592.164754,6809.894666,-77528.864398
545.862918,1776.494261,-1776.494261,-78448.178995
545.865439,4293.194464,-1036.288319,-78448.178995
545.867960,888.247130,5477.523971,-77069.207099
545.870481,-296.082377,7846.182985,-77682.083497
545.873002,1480.411884,1036.288319,-77682.083497
545.875523,148.041188,6513.812290,-78448.178995
545.878044,1480.411884,13471.748144,-76609.549800
545.880566,3256.906145,15248.242405,-78294.959896
545.883087,-592.164754,13767.830521,-79367.493593
545.885608,5773.606348,-5329.482782,-78294.959896
545.888129,0.000000,-1776.494261,-79214.274493
545.890650,-592.164754,-148.041188,-76456.330700
545.893171,4885.359217,-8882.471304,-78141.740796
545.895692,-1776.494261,-10955.047942,-81359.341888
545.898213,148.041188,-9178.553681,-77375.645298
545.900735,4293.194464,-4885.359217,-80440.027290
545.903256,-2516.700203,-296.082377,-75996.673402
545.905777,3404.947333,-3108.864956,-80440.027290
545.908298,1628.453072,-10362.883188,-80286.808190
545.910819,2960.823768,-2812.782580,-75537.016103
545.913340,-4293.194464,444.123565,-78907.836294
545.915861,-148.041188,-8586.388927,-79827.150892
545.918382,592.164754,-9622.677246,-78294.959896
545.920904,-1184.329507,-3701.029710,-79827.150892
545.923425,2516.700203,-4737.318029,-77069.207099
545.925946,-4441.235652,-296.082377,-78754.617194
545.928467,4441.235652,-8290.306550,-77375.645298
545.930988,-3997.112087,-10362.883188,-78907.836294
545.933509,-5477.523971,-9474.636058,-76303.111601
545.936030,6069.688724,-7254.018232,-78754.617194
545.938563,740.205942,-7994.224174,-77988.521696
545.941096,2516.700203,0.000000,-75843.454302
545.943629,-444.123565,-11251.130318,-83044.751983
545.946162,5477.523971,-3552.988522,-74770.920605
545.948696,-592.164754,17764.942608,-78601.398095
545.951229,444.123565,-2368.659014,-80133.589091
545.953762,3404.947333,7550.100608,-77222.426198
545.956296,-1924.535449,-1332.370696,-81818.999186
545.958829,5773.606348,7254.018232,-75383.797003
545.961362,-4145.153275,6217.729913,-76456.330700
545.963895,1036.288319,2516.700203,-78448.178995
545.966429,-1332.370696,-2220.617826,-79827.150892
545.968962,2812.782580,10066.800811,-77069.207099
545.971495,-3552.988522,11843.295072,-77682.083497
545.974028,2072.576638,444.123565,-77222.426198
545.976562,-148.041188,-5329.482782,-78448.178995
545.979095,4737.318029,5773.606348,-76303.111601
545.981628,0.000000,7846.182985,-78601.398095
545.984161,2368.659014,3997.112087,-78294.959896
545.986695,-2220.617826,6957.935855,-79673.931792
545.989228,3404.947333,8882.471304,-77528.864398
545.991761,2812.782580,15544.324782,-77682.083497
545.994294,-740.205942,14508.036463,-79520.712692
545.996828,4589.276840,-2368.659014,-78601.398095
545.999361,-2960.823768,-3997.112087,-78907.836294
546.001894,-444.123565,2516.700203,-75690.235202
546.004427,2368.659014,-6365.771101,-79367.493593
546.006961,-444.123565,-9770.718434,-78601.398095
546.009494,3849.070898,-12435.459826,-77835.302597
546.012027,-2516.700203,-2072.576638,-78754.617194
546.014560,-1332.370696,-888.247130,-76303.111601
546.017094,2960.823768,-6809.894666,-78907.836294
546.019627,-2960.823768,-1628.453072,-80593.246390
546.022160,4293.194464,-2960.823768,-78907.836294
546.024693,-296.082377,-8438.347739,-79673.931792
546.027227,296.082377,-4441.235652,-76303.111601
546.029760,444.123565,-5033.400406,-78907.836294
546.032293,3256.906145,-6217.729913,-79061.055394
546.034826,2516.700203,-5921.647536,-76149.892501
546.037360,-4441.235652,-4885.359217,-80440.027290
546.039866,1776.494261,-6365.771101,-79061.055394
546.042372,7550.100608,-14656.077652,-75843.454302
546.044879,-4885.359217,-11547.212695,-77375.645298
546.047385,-5477.523971,-740.205942,-76609.549800
546.049891,-592.164754,-11103.089130,-82125.437386
546.052398,9770.718434,-1184.329507,-74617.701505
546.054904,-8882.471304,-3108.864956,-82738.313784
546.057410,4145.153275,-14656.077652,-78601.398095
546.059917,1776.494261,15544.324782,-75996.673402
546.062423,-2812.782580,12583.501014,-81206.122788
546.064930,-296.082377,-1924.535449,-79520.712692
546.067436,5477.523971,3256.906145,-78601.398095
546.069942,444.123565,10955.047942,-76762.768900
546.072449,1776.494261,4737.318029,-75230.577904
546.074955,-4145.153275,592.164754,-77682.083497
546.077461,4145.153275,-1184.329507,-78907.836294
546.079968,-2812.782580,7698.141797,-77682.083497
546.082474,-1480.411884,11251.130318,-77222.426198
546.084980,1480.411884,1332.370696,-78601.398095
546.087487,2664.741391,-5329.482782,-78294.959896
546.089993,-296.082377,4737.318029,-75843.454302
546.092499,-2812.782580,10807.006753,-77528.864398
546.095006,1184.329507,4441.235652,-77069.207099
546.097512,1036.288319,5033.400406,-78601.398095
546.100019,-1628.453072,14804.118840,-77835.302597
546.102525,3108.864956,13619.789333,-76303.111601
546.105031,-1776.494261,13323.706956,-79214.274493
546.107538,1036.288319,-8438.347739,-78448.178995
546.110044,-888.247130,-444.123565,-77835.302597
546.112550,-1628.453072,2812.782580,-78907.836294
546.115057,4145.153275,-11103.089130,-78294.959896
546.117563,148.041188,-10658.965565,-79520.712692
546.120069,148.041188,-11843.295072,-77069.207099
546.122576,-1184.329507,-1036.288319,-75383.797003
546.125082,1036.288319,148.041188,-77988.521696
546.127588,888.247130,-9474.636058,-79061.055394
546.130095,740.205942,-2516.700203,-77528.864398
546.132601,-3108.864956,-3404.947333,-78601.398095
546.135108,2368.659014,-6957.935855,-76762.768900
546.137614,-2664.741391,-8142.265362,-76456.330700
546.140136,740.205942,-7402.059420,-77069.207099
546.142658,-592.164754,2516.700203,-79214.274493
546.145179,7550.100608,-8438.347739,-79827.150892
546.147701,2220.617826,-5773.606348,-77528.864398
546.150223,-3997.112087,-2812.782580,-79214.274493
546.152745,2960.823768,-10658.965565,-79214.274493
546.155267,2220.617826,-11695.253884,-78601.398095
546.157789,2368.659014,-6957.935855,-77835.302597
546.160310,4589.276840,888.247130,-78907.836294
546.162832,-1924.535449,-7994.224174,-79520.712692
546.165354,7105.977043,-8586.388927,-74617.701505
546.167876,-4293.194464,2368.659014,-79061.055394
546.170398,592.164754,10658.965565,-75230.577904
546.172920,2220.617826,13323.706956,-79673.931792
546.175441,1628.453072,-1184.329507,-79367.493593
546.177963,2516.700203,1480.411884,-74464.482406
546.180485,-3108.864956,11251.130318,-77682.083497
546.183007,-3256.906145,4885.359217,-78448.178995
546.185529,2072.576638,-1776.494261,-77528.864398
546.188051,1184.329507,3997.112087,-79520.712692
546.190572,3108.864956,11399.171507,-77682.083497
546.193094,1480.411884,7846.182985,-79520.712692
546.195616,5181.441594,-5773.606348,-79367.493593
546.198138,3552.988522,-888.247130,-78141.740796
546.200660,-3404.947333,9178.553681,-79367.493593
546.203182,-592.164754,8142.265362,-77222.426198
546.205703,1924.535449,5773.606348,-76609.549800
546.208225,-148.041188,13767.830521,-77988.521696
546.210747,1924.535449,13915.871710,-75843.454302
546.213269,-592.164754,12139.377449,-80133.589091
546.215791,-1480.411884,-8586.388927,-79061.055394
546.218312,4737.318029,-4441.235652,-75383.797003
546.220834,-4737.318029,3404.947333,-80286.808190
546.223356,1924.535449,-8438.347739,-76456.330700
546.225878,1036.288319,-15988.448347,-77988.521696
546.228400,740.205942,-2664.741391,-78907.836294
546.230922,4145.153275,-2960.823768,-75843.454302
546.233443,888.247130,-1480.411884,-77988.521696
546.235965,-592.164754,-5477.523971,-77988.521696
546.238487,2072.576638,-5181.441594,-76149.892501
546.241022,3701.029710,-5773.606348,-78601.398095
546.243557,-5477.523971,2516.700203,-76609.549800
546.246092,-1776.494261,-10214.842000,-76762.768900
546.248627,8290.306550,-9326.594869,-78754.617194
546.251163,1628.453072,-7698.141797,-74004.825107
546.253698,-9030.512492,-3108.864956,-77222.426198
546.256233,14508.036463,-11399.171507,-79367.493593
546.258768,2812.782580,-10510.924376,-77222.426198
546.261303,-5181.441594,3256.906145,-75383.797003
546.263838,6661.853478,-18801.230927,-83964.066581
546.266373,5477.523971,-3256.906145,-78141.740796
546.268908,740.205942,-740.205942,-78601.398095
546.271443,-1332.370696,-6957.935855,-79980.369991
546.273978,-592.164754,-7105.977043,-77835.302597
546.276513,6661.853478,15988.448347,-77835.302597
546.279048,-3552.988522,9326.594869,-79061.055394
546.281584,592.164754,7402.059420,-77375.645298
546.284119,-1924.535449,5181.441594,-82738.313784
546.286654,296.082377,1184.329507,-75537.016103
546.289189,-1184.329507,3552.988522,-77069.207099
546.291724,0.000000,4293.194464,-80440.027290
546.294259,0.000000,1480.411884,-77222.426198
546.296794,-1924.535449,5181.441594,-79520.712692
546.299329,740.205942,9770.718434,-76915.987999
546.301864,740.205942,-296.082377,-76915.987999
546.304399,-1628.453072,-444.123565,-76915.987999
546.306934,296.082377,592.164754,-76915.987999
546.309470,0.000000,9770.718434,-75383.797003
546.312005,1332.370696,9770.718434,-77835.302597
546.314540,1628.453072,7402.059420,-76609.549800
546.317075,1628.453072,16580.613101,-78754.617194
546.319610,2516.700203,12435.459826,-78448.178995
546.322145,7550.100608,296.082377,-77988.521696
546.324680,-5033.400406,1924.535449,-79520.712692
546.327215,2220.617826,-5329.482782,-76915.987999
546.329750,1628.453072,-4293.194464,-79673.931792
546.332285,3997.112087,-8438.347739,-79827.150892
546.334820,-1480.411884,-15396.283594,-80133.589091
546.337355,-2664.741391,-5921.647536,-80440.027290
546.339891,-2664.741391,-1036.288319,-76915.987999
546.342435,3552.988522,-4589.276840,-79980.369991
546.344980,-5921.647536,-8734.430116,-76456.330700
546.347525,-444.123565,-1332.370696,-74924.139704
546.350070,-1332.370696,-3552.988522,-80440.027290
546.352615,5921.647536,-10510.924376,-71859.757712
546.355160,-9030.512492,-4441.235652,-78601.398095
546.357705,-148.041188,1184.329507,-78141.740796
546.360250,5329.482782,-6217.729913,-80286.808190
546.362795,6217.729913,-12583.501014,-76456.330700
546.365340,-5033.400406,1184.329507,-76762.768900
546.367885,1332.370696,-13471.748144,-81818.999186
546.370430,6217.729913,-16136.489536,-76456.330700
546.372975,-5625.565159,-1184.329507,-76915.987999
546.375520,2812.782580,-8586.388927,-81206.122788
546.378065,-1036.288319,-6513.812290,-77988.521696
546.380610,6661.853478,-5033.400406,-75843.454302
546.383155,888.247130,7550.100608,-80440.027290
546.385700,148.041188,7846.182985,-78448.178995
546.388245,592.164754,11251.130318,-77988.521696
546.390790,3256.906145,2664.741391,-80286.808190
546.393335,296.082377,740.205942,-75383.797003
546.395880,888.247130,5921.647536,-77835.302597
546.398425,-2516.700203,3849.070898,-78448.178995
546.400970,4885.359217,-2960.823768,-78141.740796
546.403515,1332.370696,5625.565159,-77988.521696
546.406060,-296.082377,11991.336260,-77069.207099
546.408605,-1332.370696,296.082377,-77528.864398
546.411150,-1332.370696,2220.617826,-77069.207099
546.413695,3701.029710,-1184.329507,-75230.577904
546.416240,-1480.411884,10658.965565,-77988.521696
546.418785,1184.329507,7254.018232,-78294.959896
546.421329,0.000000,10214.842000,-77528.864398
546.423874,-1628.453072,17468.860231,-78141.740796
546.426419,2664.741391,8438.347739,-79214.274493
546.428964,7254.018232,2516.700203,-78448.178995
546.431509,-5329.482782,-740.205942,-78754.617194
546.434054,-1184.329507,-3997.112087,-77682.083497
546.436599,2368.659014,-5477.523971,-79980.369991
546.439144,-740.205942,-8142.265362,-77069.207099
546.441689,-2664.741391,-14656.077652,-79061.055394
546.444243,1332.370696,-7105.977043,-78754.617194
546.446796,4293.194464,148.041188,-77222.426198
546.449350,-888.247130,-6365.771101,-80286.808190
546.451903,888.247130,-6365.771101,-77222.426198
546.454457,-2812.782580,2664.741391,-80286.808190
546.457010,5921.647536,-9622.677246,-77682.083497
546.459564,-1332.370696,-10214.842000,-73545.167808
546.462118,-7254.018232,-6365.771101,-78294.959896
546.464671,3849.070898,0.000000,-78907.836294
546.467225,3108.864956,-5033.400406,-75537.016103
546.469778,-4441.235652,-5329.482782,-75843.454302
546.472332,2220.617826,-3552.988522,-77069.207099
546.474885,4145.153275,-13027.624579,-77682.083497
546.477439,1036.288319,-11843.295072,-78601.398095
546.479992,-148.041188,-3108.864956,-80286.808190
546.482546,6661.853478,-12435.459826,-77835.302597
546.485099,296.082377,-3256.906145,-75996.673402
546.487653,1332.370696,-5625.565159,-76915.987999
546.490206,1628.453072,8734.430116,-80440.027290
546.492760,-1480.411884,10955.047942,-82738.313784
546.495314,5181.441594,8586.388927,-77375.645298
546.497867,-3701.029710,3701.029710,-81052.903688
546.500421,3108.864956,3552.988522,-74924.139704
546.502974,3552.988522,444.123565,-78601.398095
546.505528,-740.205942,5329.482782,-79061.055394
546.508081,2220.617826,-1036.288319,-78754.617194
546.510635,-148.041188,6809.894666,-78907.836294
546.513188,-2072.576638,15840.407159,-77375.645298
546.515742,-2072.576638,-3404.947333,-79214.274493
546.518295,444.123565,4145.153275,-78448.178995
546.520849,1628.453072,1184.329507,-76915.987999
546.523402,-3256.906145,8142.265362,-77375.645298
546.525956,-4737.318029,9770.718434,-79980.369991
546.528510,2220.617826,7846.182985,-76609.549800
546.531063,1332.370696,19541.436869,-77222.426198
546.533617,-1184.329507,12139.377449,-79673.931792
546.536170,2220.617826,-4441.235652,-78907.836294
546.538724,2516.700203,-2960.823768,-75383.797003
546.541277,-296.082377,4293.194464,-79061.055394
546.543831,-740.205942,-13471.748144,-79214.274493
546.546392,6365.771101,-7105.977043,-78294.959896
546.548952,-1776.494261,-11399.171507,-79214.274493
546.551513,2664.741391,-5477.523971,-74311.263306
546.554074,2812.782580,296.082377,-80593.246390
546.556635,-3108.864956,-6661.853478,-79980.369991
546.559196,-2812.782580,-5625.565159,-78141.740796
546.561757,-1776.494261,-4589.276840,-79520.712692
546.564318,-2664.741391,-7550.100608,-76149.892501
546.566879,-2220.617826,-7254.018232,-77682.083497
546.569439,444.123565,-2812.782580,-77528.864398
546.572000,740.205942,-3701.029710,-77988.521696
546.574561,-4145.153275,-5329.482782,-77682.083497
546.577122,1924.535449,-6217.729913,-76609.549800
546.579683,4293.194464,-14211.954086,-79061.055394
546.582244,1332.370696,-7105.977043,-76609.549800
546.584805,148.041188,-9326.594869,-77222.426198
546.587365,1776.494261,-6661.853478,-81052.903688
546.589926,2960.823768,-9622.677246,-76149.892501
546.592487,6957.935855,-3849.070898,-77835.302597
546.595048,-2960.823768,-296.082377,-79980.369991
546.597609,-148.041188,12435.459826,-76609.549800
546.600170,-1776.494261,14508.036463,-81818.999186
546.602731,4885.359217,-296.082377,-76149.892501
546.605292,-592.164754,5773.606348,-75383.797003
546.607852,-1924.535449,7846.182985,-78294.959896
546.610413,-2516.700203,-592.164754,-77682.083497
546.612974,1924.535449,-888.247130,-76915.987999
546.615535,-740.205942,6661.853478,-78294.959896
546.618096,3108.864956,12139.377449,-76149.892501
546.620657,-296.082377,-1332.370696,-78907.836294
546.623218,4145.153275,2664.741391,-75383.797003
546.625778,1332.370696,-592.164754,-79980.369991
546.628344,888.247130,6957.935855,-79214.274493
546.630910,-2664.741391,11399.171507,-78754.617194
546.633476,1332.370696,9918.759623,-77682.083497
546.636042,4441.235652,13027.624579,-77222.426198
546.638608,-3108.864956,14359.995275,-79520.712692
546.641175,-296.082377,-5033.400406,-79214.274493
546.643741,2664.741391,-1036.288319,-75230.577904
546.646307,-3552.988522,-1036.288319,-78907.836294
546.648873,3256.906145,-11843.295072,-77069.207099
546.651439,3404.947333,-13471.748144,-77375.645298
546.654005,-1776.494261,-3404.947333,-77222.426198
546.656571,-592.164754,-4441.235652,-79673.931792
546.659137,1776.494261,-6661.853478,-76456.330700
546.661703,4737.318029,1184.329507,-79827.150892
546.664269,-2960.823768,-3108.864956,-82278.656485
546.666835,2220.617826,-6809.894666,-76609.549800
546.669401,2664.741391,-5181.441594,-75996.673402
546.671967,1184.329507,-15988.448347,-76149.892501
546.674533,-1628.453072,-3849.070898,-76303.111601
546.677099,296.082377,-3849.070898,-80899.684589
546.679665,11547.212695,-12139.377449,-80899.684589
546.682231,-3552.988522,-7402.059420,-77375.645298
546.684797,-1184.329507,-10807.006753,-77835.302597
546.687363,3849.070898,-13915.871710,-79827.150892
546.689929,3701.029710,-6217.729913,-78448.178995
546.692495,7846.182985,-11251.130318,-78601.398095
546.695061,1776.494261,-4737.318029,-78754.617194
546.697627,-4885.359217,1036.288319,-77682.083497
546.700193,8142.265362,11695.253884,-78141.740796
546.702759,-1184.329507,8734.430116,-79980.369991
546.705325,7105.977043,9030.512492,-77682.083497
546.707891,148.041188,8290.306550,-81206.122788
546.710457,1776.494261,1628.453072,-75383.797003
546.713023,444.123565,0.000000,-77222.426198
546.715589,-1184.329507,4293.194464,-78141.740796
546.718155,2516.700203,1924.535449,-78294.959896
546.720721,1628.453072,2960.823768,-77988.521696
546.723287,-1924.535449,11991.336260,-75537.016103
546.725853,-3552.988522,-296.082377,-80286.808190
546.728419,1036.288319,3108.864956,-76762.768900
546.730989,1332.370696,2072.576638,-74770.920605
546.733558,-5033.400406,13619.789333,-77835.302597
546.736128,-1480.411884,8142.265362,-78601.398095
546.738697,2516.700203,12879.583391,-75537.016103
546.741267,2812.782580,15396.283594,-78448.178995
546.743836,2516.700203,4737.318029,-78754.617194
546.746406,1036.288319,148.041188,-79367.493593
546.748975,-1184.329507,-3997.112087,-77375.645298
546.751545,7846.182985,-6809.894666,-78448.178995
546.754114,-5921.647536,-11695.253884,-80133.589091
546.756684,5625.565159,-13175.665768,-76609.549800
546.759253,-1776.494261,-8734.430116,-80899.684589
546.761823,1332.370696,-2368.659014,-74770.920605
546.764392,2516.700203,-3256.906145,-79061.055394
546.766962,-592.164754,-5329.482782,-80286.808190
546.769531,3256.906145,-2368.659014,-75383.797003
546.772100,-5625.565159,-888.247130,-80746.465489
546.774670,5329.482782,-10807.006753,-77069.207099
546.777239,-2516.700203,-6809.894666,-76915.987999
546.779809,-3849.070898,-1184.329507,-77528.864398
546.782378,-740.205942,-2516.700203,-78907.836294
546.784948,444.123565,-9918.759623,-77835.302597
546.787517,3256.906145,-11103.089130,-76149.892501
546.790087,-740.205942,-2220.617826,-77375.645298
546.792656,-2960.823768,-16876.695478,-79367.493593
546.795226,5033.400406,-14211.954086,-74004.825107
546.797795,-4885.359217,-2812.782580,-79214.274493
546.800365,5181.441594,-9918.759623,-77375.645298
546.802934,-2812.782580,7254.018232,-76149.892501
546.805504,1036.288319,9030.512492,-78141.740796
546.808073,-1184.329507,11103.089130,-79214.274493
546.810643,-3108.864956,4885.359217,-79673.931792
546.813212,6513.812290,6661.853478,-73545.167808
546.815782,-296.082377,1184.329507,-78907.836294
546.818351,-888.247130,296.082377,-77528.864398
546.820921,3108.864956,-296.082377,-79367.493593
546.823490,5921.647536,6809.894666,-76915.987999
546.826060,1332.370696,10362.883188,-78907.836294
546.828629,1332.370696,8586.388927,-79214.274493
546.831199,4885.359217,-2516.700203,-78907.836294
546.833771,7550.100608,2072.576638,-75843.454302
546.836344,-5625.565159,11103.089130,-79367.493593
546.838916,2368.659014,6661.853478,-77528.864398
546.841489,2516.700203,11399.171507,-77988.521696
546.844061,-2072.576638,15248.242405,-77375.645298
546.846633,2812.782580,8734.430116,-77682.083497
546.849206,-1776.494261,4293.194464,-79061.055394
546.851778,3108.864956,-888.247130,-75690.235202
546.854351,148.041188,-1776.494261,-79673.931792
546.856923,-148.041188,-15544.324782,-78141.740796
546.859496,5921.647536,-11251.130318,-78294.959896
546.862068,-2960.823768,-5921.647536,-80286.808190
546.864640,5477.523971,-8586.388927,-74924.139704
546.867213,-1036.288319,-1480.411884,-80593.246390
546.869785,3552.988522,-4885.359217,-77222.426198
546.872358,-2220.617826,-4737.318029,-77222.426198
546.874930,444.123565,1036.288319,-76915.987999
546.877502,0.000000,-10658.965565,-77682.083497
546.880075,-4589.276840,-6661.853478,-79980.369991
546.882647,2220.617826,0.000000,-77375.645298
546.885220,3108.864956,-7698.141797,-78448.178995
546.887792,-3108.864956,-6661.853478,-78448.178995
546.890365,-5033.400406,-8734.430116,-78754.617194
546.892937,3108.864956,-5625.565159,-76762.768900
546.895509,-2368.659014,-18949.272115,-76609.549800
546.898082,1480.411884,-8438.347739,-77222.426198
546.900654,-3701.029710,-4885.359217,-79827.150892
546.903227,5921.647536,-8290.306550,-77835.302597
546.905799,1184.329507,4145.153275,-74617.701505
546.908371,-888.247130,10955.047942,-77222.426198
546.910944,1628.453072,13175.665768,-78907.836294
546.913516,4885.359217,4293.194464,-78294.959896
546.916089,4145.153275,11399.171507,-77069.207099
546.918661,-4441.235652,5477.523971,-80286.808190
546.921234,592.164754,-2072.576638,-77069.207099
546.923806,296.082377,-592.164754,-78601.398095
546.926378,2516.700203,8734.430116,-78294.959896
546.928951,1480.411884,10362.883188,-77528.864398
546.931523,2812.782580,5181.441594,-76762.768900
546.934096,444.123565,-444.123565,-80133.589091
546.936670,740.205942,3404.947333,-78294.959896
546.939245,1480.411884,7698.141797,-77222.426198
546.941820,444.123565,8586.388927,-78294.959896
546.944395,3404.947333,13767.830521,-77988.521696
546.946970,1036.288319,12583.501014,-78907.836294
546.949545,2368.659014,6365.771101,-77528.864398
546.952120,-2812.782580,5477.523971,-79520.712692
546.954694,2516.700203,-4145.153275,-78294.959896
546.957269,-1036.288319,-2072.576638,-79980.369991
546.959844,3108.864956,-15692.365970,-77375.645298
546.962419,-2664.741391,-13471.748144,-78907.836294
546.964994,-2664.741391,-5033.400406,-75537.016103
546.967569,6661.853478,-5329.482782,-76609.549800
546.970144,296.082377,-6365.771101,-81818.999186
546.972719,592.164754,-740.205942,-76915.987999
546.975294,-296.082377,-3108.864956,-81818.999186
546.977868,444.123565,-4293.194464,-75690.235202
546.980443,2368.659014,-7698.141797,-75996.673402
546.983018,2072.576638,-15692.365970,-80440.027290
546.985593,-1924.535449,1332.370696,-75077.358804
546.988168,-3997.112087,-3552.988522,-82125.437386
546.990743,1628.453072,-9326.594869,-81818.999186
546.993318,4885.359217,-13767.830521,-78294.959896
546.995893,1480.411884,-8586.388927,-77528.864398
546.998468,-1924.535449,-8290.306550,-80133.589091
547.001042,8882.471304,-15840.407159,-80593.246390
547.003617,-1628.453072,-7105.977043,-79061.055394
547.006192,-1184.329507,-3701.029710,-77988.521696
547.008767,3552.988522,8734.430116,-78448.178995
547.011342,740.205942,11547.212695,-76762.768900
547.013917,-888.247130,9918.759623,-76609.549800
547.016492,-3404.947333,9030.512492,-83044.751983
547.019067,4441.235652,3108.864956,-74311.263306
547.021642,-148.041188,4737.318029,-75843.454302
547.024216,-2812.782580,-4589.276840,-80593.246390
547.026791,888.247130,-592.164754,-76456.330700
547.029366,-740.205942,9622.677246,-78754.617194
547.031941,3404.947333,12435.459826,-77988.521696
547.034516,1036.288319,592.164754,-79061.055394
547.037091,888.247130,2812.782580,-76456.330700
547.039668,-592.164754,6069.688724,-75996.673402
547.042245,-1036.288319,9770.718434,-77222.426198
547.044821,-296.082377,12435.459826,-79061.055394
547.047398,-2220.617826,16876.695478,-77375.645298
547.049975,4293.194464,8882.471304,-78448.178995
547.052552,296.082377,2516.700203,-77528.864398
547.055129,1184.329507,2812.782580,-76149.892501
547.057706,-4441.235652,-3108.864956,-80899.684589
547.060282,2516.700203,-16136.489536,-77528.864398
547.062859,2960.823768,-16284.530724,-78448.178995
547.065436,-1924.535449,-5181.441594,-77835.302597
547.068013,6365.771101,-3552.988522,-75996.673402
547.070590,1628.453072,-3701.029710,-81052.903688
547.073167,7698.141797,-3997.112087,-76609.549800
547.075743,3552.988522,-3256.906145,-78294.959896
547.078320,5181.441594,444.123565,-77375.645298
547.080897,-3997.112087,-2368.659014,-77375.645298
547.083474,888.247130,-14804.118840,-82278.656485
547.086051,5921.647536,-2664.741391,-76762.768900
547.088628,1036.288319,-5033.400406,-77988.521696
547.091204,148.041188,-8586.388927,-76609.549800
547.093781,-3404.947333,-9326.594869,-79061.055394
547.096358,4885.359217,-13915.871710,-77375.645298
547.098935,1036.288319,-10362.883188,-78141.740796
547.101512,3849.070898,-6957.935855,-77375.645298
547.104089,-1924.535449,-8734.430116,-78601.398095
547.106666,-592.164754,-5329.482782,-76762.768900
547.109242,-1776.494261,17764.942608,-78448.178995
547.111819,4441.235652,12583.501014,-80133.589091
547.114396,-148.041188,8438.347739,-78448.178995
547.116973,888.247130,9622.677246,-78907.836294
547.119550,1036.288319,3849.070898,-78294.959896
547.122127,2368.659014,1332.370696,-75230.577904
547.124703,-5773.606348,2812.782580,-79520.712692
547.127280,0.000000,-148.041188,-79673.931792
547.129857,2516.700203,7846.182985,-76915.987999
547.132434,-1924.535449,13027.624579,-77069.207099
547.135011,-2960.823768,-1924.535449,-77988.521696
547.137588,148.041188,3701.029710,-76149.892501
547.140164,740.205942,7402.059420,-76149.892501
547.142742,1776.494261,8290.306550,-78448.178995
547.145320,-740.205942,13471.748144,-78141.740796
547.147897,740.205942,15248.242405,-77682.083497
547.150475,5033.400406,7994.224174,-78907.836294
547.153053,2664.741391,3849.070898,-78294.959896
547.155630,0.000000,1184.329507,-79214.274493
547.158208,3108.864956,-3256.906145,-78601.398095
547.160786,592.164754,-13915.871710,-77069.207099
547.163364,7105.977043,-17172.777854,-79061.055394
547.165941,-5921.647536,-9178.553681,-77069.207099
547.168519,2368.659014,-4441.235652,-73851.606007
547.171097,-1036.288319,-1628.453072,-80899.684589
547.173674,2960.823768,-4441.235652,-81052.903688
547.176252,3701.029710,-2664.741391,-78294.959896
547.178830,2960.823768,444.123565,-78448.178995
547.181407,6661.853478,-10214.842000,-75690.235202
547.183985,-592.164754,-10807.006753,-77682.083497
547.186563,2072.576638,-2664.741391,-76456.330700
547.189140,0.000000,-6513.812290,-77682.083497
547.191718,888.247130,-4145.153275,-76149.892501
547.194296,4737.318029,-10955.047942,-77835.302597
547.196873,2072.576638,-15692.365970,-78754.617194
547.199451,-3552.988522,-4737.318029,-80133.589091
547.202029,-1332.370696,-15396.283594,-81206.122788
547.204606,4737.318029,-6661.853478,-77528.864398
547.207184,1776.494261,-6069.688724,-76915.987999
547.209762,2960.823768,15840.407159,-77835.302597
547.212339,4589.276840,12731.542202,-79520.712692
547.214917,6661.853478,11251.130318,-79214.274493
547.217495,-2664.741391,7550.100608,-79061.055394
547.220072,740.205942,9474.636058,-76762.768900
547.222650,1628.453072,-4885.359217,-78907.836294
547.225228,5921.647536,-2368.659014,-76609.549800
547.227805,-3108.864956,3108.864956,-79520.712692
547.230383,1628.453072,6809.894666,-78754.617194
547.232961,2220.617826,14952.160028,-76762.768900
547.235538,4885.359217,-2664.741391,-77835.302597
547.238116,-1184.329507,4589.276840,-78141.740796
547.240694,-2368.659014,9474.636058,-78601.398095
547.243271,1480.411884,9326.594869,-77682.083497
547.245816,1628.453072,12879.583391,-78601.398095
547.248361,-1776.494261,14656.077652,-79061.055394
547.250905,2516.700203,2960.823768,-77988.521696
547.253450,-592.164754,6661.853478,-76762.768900
547.255994,-5181.441594,-296.082377,-77069.207099
547.258539,2960.823768,-5477.523971,-77988.521696
547.261084,-4441.235652,-13471.748144,-78754.617194
547.263628,4293.194464,-17024.736666,-74464.482406
547.266173,740.205942,-5921.647536,-78448.178995
547.268717,740.205942,-4737.318029,-76303.111601
547.271262,740.205942,-592.164754,-79980.369991
547.273806,2664.741391,-2368.659014,-80746.465489
547.276351,7846.182985,-5033.400406,-75996.673402
547.278896,-2368.659014,1480.411884,-78294.959896
547.281440,-1776.494261,-4885.359217,-80286.808190
547.283985,6513.812290,-13027.624579,-79367.493593
547.286529,3256.906145,-1036.288319,-79827.150892
547.289074,888.247130,-9622.677246,-77988.521696
547.291618,-7402.059420,-5921.647536,-78448.178995
547.294163,1480.411884,-10658.965565,-77222.426198
547.296708,1036.288319,-18061.024985,-78294.959896
547.299252,-3997.112087,-4589.276840,-79980.369991
547.301797,-4145.153275,-15396.283594,-80133.589091
547.304341,8290.306550,-10510.924376,-74464.482406
547.306886,592.164754,13175.665768,-77069.207099
547.309430,3256.906145,8882.471304,-78294.959896
547.311975,-3701.029710,15396.283594,-77835.302597
547.314520,740.205942,12435.459826,-78448.178995
547.317064,8142.265362,2516.700203,-75077.358804
547.319609,-2664.741391,3701.029710,-77375.645298
547.322153,-3552.988522,0.000000,-78448.178995
547.324698,2072.576638,-3701.029710,-78601.398095
547.327242,4145.153275,4589.276840,-77835.302597
547.329787,444.123565,13767.830521,-77835.302597
547.332332,2220.617826,6809.894666,-79673.931792
547.334876,5477.523971,296.082377,-77222.426198
547.337421,-1332.370696,7550.100608,-76915.987999
547.339965,1036.288319,10362.883188,-79367.493593
547.342510,2072.576638,9622.677246,-79980.369991
547.345055,1332.370696,14063.912898,-77682.083497
547.347606,3552.988522,10214.842000,-79061.055394
547.350157,2812.782580,3108.864956,-78448.178995
547.352709,-3997.112087,3108.864956,-76915.987999
547.355260,3552.988522,-1924.535449,-77528.864398
547.357812,-6513.812290,-17616.901420,-79827.150892
547.360363,2220.617826,-15692.365970,-76456.330700
547.362915,-296.082377,-7994.224174,-79673.931792
547.365466,2220.617826,-9326.594869,-74617.701505
547.368018,-3108.864956,1332.370696,-77835.302597
547.370569,2960.823768,-6809.894666,-79673.931792
547.373121,-8290.306550,0.000000,-77528.864398
547.375672,1924.535449,2072.576638,-78141.740796
547.378224,10066.800811,-11251.130318,-79520.712692
547.380775,-7846.182985,-10658.965565,-78754.617194
547.383326,148.041188,-1332.370696,-79673.931792
547.385878,3404.947333,-7846.182985,-81972.218286
547.388429,-740.205942,-2516.700203,-74924.139704
547.390981,1776.494261,-14952.160028,-79520.712692
547.393532,3404.947333,-13619.789333,-77835.302597
547.396084,-1776.494261,-7254.018232,-76915.987999
547.398635,-2072.576638,-17172.777854,-78601.398095
547.401187,2664.741391,-7846.182985,-77988.521696
547.403738,-2072.576638,8438.347739,-76149.892501
547.406290,-1184.329507,10066.800811,-78907.836294
547.408841,2664.741391,14952.160028,-77682.083497
547.411393,4145.153275,10807.006753,-79367.493593
547.413944,-1628.453072,7698.141797,-76915.987999
547.416495,-740.205942,3849.070898,-77375.645298
547.419047,-2368.659014,-3256.906145,-79214.274493
547.421598,-2664.741391,-592.164754,-76762.768900
547.424150,-740.205942,4145.153275,-76915.987999
547.426701,1184.329507,10658.965565,-77682.083497
547.429253,-2664.741391,8290.306550,-79673.931792
547.431804,3404.947333,1628.453072,-77222.426198
547.434356,-1924.535449,9030.512492,-77988.521696
547.436907,-148.041188,7994.224174,-78448.178995
547.439459,-296.082377,11251.130318,-79673.931792
547.442010,-1924.535449,15248.242405,-78907.836294
547.444561,3997.112087,6809.894666,-77222.426198
547.447113,1776.494261,5921.647536,-78294.959896
547.449671,1036.288319,3108.864956,-76915.987999
547.452228,1480.411884,-6217.729913,-79520.712692
547.454786,-3849.070898,-9770.718434,-77988.521696
547.457343,2368.659014,-16432.571912,-77682.083497
547.459901,2960.823768,-11399.171507,-80133.589091
547.462458,-1184.329507,-5329.482782,-75230.577904
547.465016,-444.123565,-148.041188,-77375.645298
547.467574,-592.164754,-3404.947333,-83504.409282
547.470131,6957.935855,-888.247130,-75230.577904
547.472689,740.205942,-2072.576638,-79214.274493
547.475246,592.164754,-8586.388927,-78907.836294
547.477804,5773.606348,-10807.006753,-77682.083497
547.480361,-740.205942,-5625.565159,-79980.369991
547.482919,-444.123565,-7994.224174,-79673.931792
547.485477,4589.276840,-6661.853478,-79827.150892
547.488034,-3997.112087,-13027.624579,-79214.274493
547.490592,1924.535449,-10362.883188,-76303.111601
547.493149,-3404.947333,-13915.871710,-81206.122788
547.495707,-1184.329507,-9918.759623,-77069.207099
547.498265,-888.247130,-7105.977043,-76609.549800
547.500822,4145.153275,13619.789333,-78141.740796
547.503380,-1924.535449,14952.160028,-79673.931792
547.505937,5329.482782,7402.059420,-77682.083497
547.508495,-5033.400406,15248.242405,-78448.178995
547.511052,-148.041188,8290.306550,-76915.987999
547.513610,1628.453072,-3256.906145,-78448.178995
547.516168,2664.741391,-3849.070898,-78294.959896
547.518725,-1036.288319,2072.576638,-80133.589091
547.521283,1332.370696,5329.482782,-78907.836294
547.523840,1776.494261,13619.789333,-76303.111601
547.526398,2812.782580,1332.370696,-81972.218286
547.528956,3701.029710,3108.864956,-76149.892501
547.531513,-5181.441594,8882.471304,-76915.987999
547.534071,-1628.453072,17912.983796,-78448.178995
547.536628,2516.700203,7550.100608,-78907.836294
547.539186,2664.741391,8586.388927,-78141.740796
547.541743,-2220.617826,9178.553681,-79214.274493
547.544301,6957.935855,-592.164754,-76915.987999
547.546859,-2664.741391,5625.565159,-79061.055394
547.549416,296.082377,-16284.530724,-77988.521696
547.551978,1184.329507,-12139.377449,-79520.712692
547.554540,-2664.741391,-9770.718434,-80746.465489
547.557102,7402.059420,-12287.418637,-74464.482406
547.559663,-3849.070898,-296.082377,-80133.589091
547.562225,2220.617826,-5033.400406,-79827.150892
547.564787,3552.988522,-740.205942,-79061.055394
547.567349,2812.782580,888.247130,-77069.207099
547.569911,-1628.453072,-7254.018232,-76762.768900
547.572473,-1184.329507,-9622.677246,-77222.426198
547.575034,740.205942,-5921.647536,-78294.959896
547.577596,1480.411884,-11251.130318,-78601.398095
547.580158,1480.411884,-4441.235652,-78294.959896
547.582720,-2220.617826,-8290.306550,-76762.768900
547.585282,0.000000,-13027.624579,-77222.426198
547.587843,-888.247130,-15396.283594,-78294.959896
547.590405,-4737.318029,-15840.407159,-76303.111601
547.592967,2072.576638,-5773.606348,-78754.617194
547.595529,740.205942,9326.594869,-76609.549800
547.598091,1184.329507,10066.800811,-79367.493593
547.600652,2664.741391,17912.983796,-78754.617194
547.603214,148.041188,10955.047942,-80899.684589
547.605776,4441.235652,8142.265362,-75537.016103
547.608338,296.082377,740.205942,-78141.740796
547.610900,592.164754,-1776.494261,-78294.959896
547.613462,148.041188,-3108.864956,-80440.027290
547.616023,3701.029710,3997.112087,-75077.358804
547.618585,-444.123565,13027.624579,-77069.207099
547.621147,-1184.329507,6513.812290,-79367.493593
547.623709,3997.112087,1628.453072,-77528.864398
547.626271,2812.782580,8438.347739,-76762.768900
547.628832,-4885.359217,17912.983796,-79673.931792
547.631394,4145.153275,9918.759623,-78754.617194
547.633956,1480.411884,7402.059420,-78448.178995
547.636518,1036.288319,6957.935855,-77835.302597
547.639080,2516.700203,4589.276840,-78448.178995
547.641642,0.000000,8882.471304,-77528.864398
547.644203,2368.659014,-13915.871710,-79061.055394
547.646765,4885.359217,-19393.395680,-79061.055394
547.649327,-6217.729913,-14952.160028,-79214.274493
547.651889,3552.988522,-5773.606348,-76609.549800
547.654454,2812.782580,-7105.977043,-78754.617194
547.657020,-1628.453072,-6957.935855,-77988.521696
547.659586,-3108.864956,3701.029710,-81972.218286
547.662151,3108.864956,-3849.070898,-78754.617194
547.664717,1036.288319,296.082377,-73698.386908
547.667283,-1628.453072,-7994.224174,-79673.931792
547.669848,-1036.288319,-10807.006753,-79673.931792
547.672414,-3997.112087,-5773.606348,-75690.235202
547.674980,740.205942,-3256.906145,-78294.959896
547.677545,4145.153275,-13915.871710,-79367.493593
547.680111,-3256.906145,-10066.800811,-78907.836294
547.682677,-4145.153275,-12139.377449,-78907.836294
547.685242,2516.700203,-17468.860231,-79214.274493
547.687808,-444.123565,-6661.853478,-77835.302597
547.690374,3849.070898,7254.018232,-78141.740796
547.692939,-5329.482782,9770.718434,-79214.274493
547.695505,-296.082377,14804.118840,-76762.768900
547.698070,3552.988522,10658.965565,-79520.712692
547.700636,-3108.864956,7994.224174,-75383.797003
547.703202,148.041188,6513.812290,-76915.987999
547.705767,-2368.659014,-4145.153275,-80286.808190
547.708333,1480.411884,-1036.288319,-74617.701505
547.710899,148.041188,4145.153275,-79673.931792
547.713464,5329.482782,4737.318029,-78448.178995
547.716030,-148.041188,7846.182985,-78141.740796
547.718596,3404.947333,4293.194464,-80286.808190
547.721161,2368.659014,8438.347739,-76762.768900
547.723727,-3552.988522,13027.624579,-76762.768900
547.726293,2368.659014,10362.883188,-79827.150892
547.728858,1924.535449,10362.883188,-79061.055394
547.731424,444.123565,6365.771101,-77682.083497
547.733990,2960.823768,4885.359217,-78448.178995
547.736555,148.041188,2960.823768,-77988.521696
547.739121,148.041188,-12139.377449,-76762.768900
547.741686,-1332.370696,-16728.654289,-79214.274493
547.744252,740.205942,-16728.654289,-75077.358804
547.746818,5477.523971,-9178.553681,-75383.797003
547.749383,-7254.018232,-2812.782580,-80746.465489
547.751949,3701.029710,-3256.906145,-77375.645298
547.754515,-592.164754,-3108.864956,-79367.493593
547.757083,3849.070898,-1628.453072,-73085.510509
547.759651,3404.947333,-6513.812290,-73391.948708
547.762219,-592.164754,-7550.100608,-80593.246390
547.764787,592.164754,-6957.935855,-78294.959896
547.767355,2664.741391,-10362.883188,-77375.645298
547.769923,2072.576638,-6069.688724,-77069.207099
547.772491,8142.265362,-13619.789333,-77682.083497
547.775059,-1036.288319,-10066.800811,-77682.083497
547.777627,6661.853478,-12435.459826,-78448.178995
547.780195,5181.441594,-12731.542202,-81052.903688
547.782763,-296.082377,-4293.194464,-77835.302597
547.785331,3997.112087,19541.436869,-76303.111601
547.787899,5921.647536,6809.894666,-81972.218286
547.790467,2664.741391,11547.212695,-75383.797003
547.793035,-740.205942,17172.777854,-81512.560987
547.795603,3701.029710,5773.606348,-76915.987999
547.798171,1036.288319,148.041188,-76149.892501
547.800739,1776.494261,-3997.112087,-78448.178995
547.803307,-2960.823768,2220.617826,-79673.931792
547.805876,-1332.370696,3552.988522,-77069.207099
547.808444,3108.864956,9030.512492,-76915.987999
547.811012,0.000000,2812.782580,-79214.274493
547.813580,-592.164754,7698.141797,-77528.864398
547.816148,5033.400406,8734.430116,-77375.645298
547.818716,-1924.535449,17172.777854,-76456.330700
547.821284,1332.370696,12287.418637,-77988.521696
547.823852,296.082377,3701.029710,-80133.589091
547.826420,1036.288319,7550.100608,-76915.987999
547.828988,296.082377,6365.771101,-78141.740796
547.831556,444.123565,-2368.659014,-80746.465489
547.834124,2072.576638,-11991.336260,-77375.645298
547.836692,1924.535449,-20873.807564,-80899.684589
547.839260,740.205942,-16876.695478,-75843.454302
547.841828,592.164754,-3256.906145,-77069.207099
547.844396,4737.318029,-7994.224174,-80899.684589
547.846964,5033.400406,-4737.318029,-78448.178995
547.849532,1036.288319,-888.247130,-78294.959896
547.852100,-4441.235652,-592.164754,-79061.055394
547.854668,1184.329507,-6217.729913,-77222.426198
547.857236,1332.370696,-16136.489536,-77682.083497
547.859806,-6513.812290,-3849.070898,-77375.645298
547.862376,-2072.576638,-12731.542202,-80440.027290
547.864946,8290.306550,-8586.388927,-73545.167808
547.867516,-2812.782580,-3108.864956,-77988.521696
547.870087,-1184.329507,-14804.118840,-78754.617194
547.872657,-1480.411884,-22650.301825,-78448.178995
547.875227,2368.659014,148.041188,-74617.701505
547.877797,3552.988522,12879.583391,-79367.493593
547.880367,2368.659014,9474.636058,-78294.959896
547.882937,-2072.576638,18801.230927,-79980.369991
547.885507,5773.606348,8290.306550,-79673.931792
547.888077,1924.535449,10510.924376,-74158.044206
547.890647,-740.205942,3552.988522,-77682.083497
547.893217,-1924.535449,-5773.606348,-78601.398095
547.895787,-1332.370696,-2220.617826,-78448.178995
547.898357,2960.823768,6365.771101,-75843.454302
547.900927,-296.082377,9918.759623,-78601.398095
547.903497,1332.370696,6661.853478,-79980.369991
547.906067,3701.029710,2812.782580,-79520.712692
547.908637,148.041188,8734.430116,-76303.111601
547.911207,-3256.906145,18653.189738,-78448.178995
547.913777,2072.576638,13471.748144,-78907.836294
547.916347,3108.864956,-296.082377,-77682.083497
547.918917,6217.729913,6365.771101,-76303.111601
547.921487,-7698.141797,7254.018232,-80286.808190
547.924057,6957.935855,888.247130,-79367.493593
547.926627,-2664.741391,-13027.624579,-79827.150892
547.929197,3849.070898,-22354.219448,-76609.549800
547.931768,-2960.823768,-14508.036463,-79061.055394
547.934338,3404.947333,-7994.224174,-75383.797003
547.936908,444.123565,740.205942,-81052.903688
547.939478,-592.164754,-5921.647536,-82431.875585
547.942048,1776.494261,2220.617826,-75230.577904
547.944618,-5921.647536,1480.411884,-82585.094684
547.947188,3997.112087,-6809.894666,-77222.426198
547.949758,-1184.329507,-19541.436869,-79214.274493
547.952328,3108.864956,-6217.729913,-79980.369991
547.954898,-2368.659014,-8882.471304,-80746.465489
547.957468,6661.853478,-9918.759623,-75537.016103
547.960038,-2960.823768,-5625.565159,-77222.426198
547.962611,5477.523971,-14508.036463,-79214.274493
547.965183,0.000000,-24130.713709,-77375.645298
547.967755,-3404.947333,-4737.318029,-75996.673402
547.970326,6217.729913,10955.047942,-77222.426198
547.972898,-2220.617826,12435.459826,-77528.864398
547.975470,5477.523971,14952.160028,-76149.892501
547.978042,-740.205942,14656.077652,-83351.190182
547.980614,5033.400406,6661.853478,-73085.510509
547.983185,296.082377,5625.565159,-73545.167808
547.985757,-5033.400406,-4885.359217,-81665.780087
547.988329,6365.771101,-4441.235652,-75690.235202
547.990901,-1332.370696,5477.523971,-79673.931792
547.993473,1924.535449,16728.654289,-76762.768900
547.996045,-1036.288319,5033.400406,-79827.150892
547.998616,9622.677246,-592.164754,-76609.549800
548.001188,-6513.812290,12435.459826,-78907.836294
548.003760,592.164754,15544.324782,-78294.959896
548.006332,-888.247130,11251.130318,-80593.246390
548.008904,6809.894666,2368.659014,-77682.083497
548.011475,-6069.688724,5033.400406,-78448.178995
548.014047,-296.082377,3701.029710,-76456.330700
548.016619,592.164754,5329.482782,-78907.836294
548.019191,-148.041188,-15988.448347,-78907.836294
548.021763,-3256.906145,-25167.002028,-78294.959896
548.024334,-3701.029710,-7402.059420,-78448.178995
548.026906,6365.771101,-9474.636058,-76915.987999
548.029478,4145.153275,-5477.523971,-78141.740796
548.032050,-3256.906145,-2516.700203,-78294.959896
548.034622,2368.659014,2960.823768,-80440.027290
548.037194,7698.141797,-3108.864956,-78141.740796
548.039765,-2368.659014,-3256.906145,-74924.139704
548.042337,148.041188,-9030.512492,-80593.246390
548.044910,9622.677246,-9326.594869,-82125.437386
548.047483,592.164754,-8734.430116,-75996.673402
548.050055,1184.329507,-5181.441594,-78754.617194
548.052628,5033.400406,-15396.283594,-79827.150892
548.055201,3849.070898,-19689.478057,-77375.645298
548.057774,-7550.100608,-13915.871710,-77835.302597
548.060346,4589.276840,-11399.171507,-78448.178995
548.062919,3552.988522,17024.736666,-78601.398095
548.065492,1776.494261,16432.571912,-76915.987999
548.068065,148.041188,12287.418637,-79214.274493
548.070638,592.164754,12287.418637,-80133.589091
548.073210,4293.194464,12731.542202,-77222.426198
548.075783,-3701.029710,740.205942,-77835.302597
548.078356,1776.494261,-6661.853478,-78141.740796
548.080929,-888.247130,-1332.370696,-79980.369991
548.083501,740.205942,6809.894666,-78448.178995
548.086074,-740.205942,11103.089130,-77069.207099
548.088647,-296.082377,2220.617826,-79827.150892
548.091220,-1628.453072,6661.853478,-78601.398095
548.093792,4885.359217,6365.771101,-77835.302597
548.096365,-6217.729913,15692.365970,-77222.426198
548.098938,-2812.782580,18209.066173,-78754.617194
548.101511,-1184.329507,1776.494261,-80746.465489
548.104083,5181.441594,444.123565,-76149.892501
548.106656,-4145.153275,13027.624579,-75690.235202
548.109229,3404.947333,-6513.812290,-81359.341888
548.111802,-1776.494261,-15544.324782,-77682.083497
548.114374,-2516.700203,-19985.560434,-77682.083497
548.116947,3849.070898,-13323.706956,-77222.426198
548.119520,3701.029710,-3256.906145,-77528.864398
548.122093,5181.441594,-1776.494261,-78448.178995
548.124665,740.205942,-6365.771101,-80899.684589
548.127238,1776.494261,148.041188,-76456.330700
548.129811,-1628.453072,1924.535449,-76915.987999
548.132384,8734.430116,-4293.194464,-77528.864398
548.134956,5033.400406,-14656.077652,-79520.712692
548.137529,-2072.576638,-8882.471304,-77528.864398
548.140102,2960.823768,-4589.276840,-82431.875585
548.142675,4441.235652,-16136.489536,-81359.341888
548.145247,-2220.617826,-18653.189738,-75996.673402
548.147821,-6513.812290,-6513.812290,-79214.274493
548.150394,1184.329507,-23686.590144,-81052.903688
548.152968,296.082377,4293.194464,-74004.825107
548.155541,-7846.182985,18209.066173,-78141.740796
548.158115,-592.164754,12435.459826,-79520.712692
548.160688,-5773.606348,14952.160028,-78141.740796
548.163262,5773.606348,10658.965565,-76149.892501
548.165835,-2960.823768,7846.182985,-78907.836294
548.168409,-2072.576638,1036.288319,-77835.302597
548.170982,3552.988522,-7402.059420,-77069.207099
548.173556,-1628.453072,3701.029710,-79980.369991
548.176129,2072.576638,7550.100608,-77682.083497
548.178703,2960.823768,13471.748144,-79367.493593
548.181276,3404.947333,444.123565,-77835.302597
548.183850,1184.329507,7698.141797,-78294.959896
548.186423,-5477.523971,14359.995275,-80593.246390
548.188997,1480.411884,17468.860231,-77528.864398
548.191570,1332.370696,4145.153275,-78294.959896
548.194144,-1628.453072,7994.224174,-78141.740796
548.196717,-2960.823768,1480.411884,-78754.617194
548.199291,1184.329507,3404.947333,-78907.836294
