#time,accel_x,accel_y,accel_z
37.610027,1036.288319,-1184.329507,-77988.521696
37.612468,444.123565,-444.123565,-78448.178995
37.614908,2220.617826,-592.164754,-77988.521696
37.617349,740.205942,-1184.329507,-77528.864398
37.619790,444.123565,-888.247130,-78448.178995
37.622230,740.205942,-148.041188,-77375.645298
37.624671,444.123565,-1036.288319,-78448.178995
37.627112,1184.329507,-888.247130,-77682.083497
37.629552,1036.288319,-740.205942,-77682.083497
37.631993,148.041188,148.041188,-77528.864398
37.634433,296.082377,-296.082377,-77835.302597
37.636874,592.164754,-296.082377,-78294.959896
37.639315,1036.288319,-444.123565,-77835.302597
37.641755,592.164754,-888.247130,-77988.521696
37.644196,888.247130,-888.247130,-77988.521696
37.646637,148.041188,-444.123565,-77988.521696
37.649077,592.164754,-148.041188,-78448.178995
37.651518,444.123565,148.041188,-77835.302597
37.653959,-148.041188,-888.247130,-77069.207099
37.656399,-148.041188,-444.123565,-78448.178995
37.658840,1036.288319,-1036.288319,-77835.302597
37.661281,296.082377,-888.247130,-78141.740796
37.663721,-148.041188,-1036.288319,-77682.083497
37.666162,-592.164754,-888.247130,-78754.617194
37.668603,888.247130,-888.247130,-78141.740796
37.671043,888.247130,-592.164754,-76762.768900
37.673484,1184.329507,-740.205942,-77835.302597
37.675924,4885.359217,592.164754,-78294.959896
37.678365,5181.441594,-2220.617826,-79367.493593
37.680806,11695.253884,-1480.411884,-76609.549800
37.683246,296.082377,-2072.576638,-79520.712692
37.685687,3552.988522,1332.370696,-76915.987999
37.688128,5921.647536,-1332.370696,-77682.083497
37.690568,6217.729913,-1924.535449,-78448.178995
37.693009,1924.535449,1776.494261,-76762.768900
37.695450,1628.453072,-1480.411884,-78601.398095
37.697890,0.000000,-1184.329507,-77222.426198
37.700331,1924.535449,-444.123565,-76609.549800
37.702772,888.247130,-1036.288319,-78141.740796
37.705212,11843.295072,148.041188,-77222.426198
37.707653,3701.029710,-1924.535449,-77682.083497
37.710133,-9178.553681,-2812.782580,-77835.302597
37.712613,-12879.583391,1184.329507,-75996.673402
37.715092,-3552.988522,-3256.906145,-79673.931792
37.717572,2664.741391,740.205942,-76915.987999
37.720052,1628.453072,-1776.494261,-78141.740796
37.722532,6809.894666,592.164754,-79061.055394
37.725012,-2664.741391,-2072.576638,-78294.959896
37.727491,-7698.141797,-296.082377,-76303.111601
37.729971,-6217.729913,-148.041188,-79827.150892
37.732451,5181.441594,-1036.288319,-76915.987999
37.734931,-2516.700203,-2072.576638,-79061.055394
37.737411,1776.494261,1184.329507,-74924.139704
37.739890,2220.617826,-2368.659014,-79214.274493
37.742370,-1776.494261,-1036.288319,-78448.178995
37.744850,-6217.729913,-592.164754,-76149.892501
37.747330,-740.205942,-1480.411884,-79367.493593
37.749810,-3701.029710,-2664.741391,-78294.959896
37.752290,-1036.288319,-148.041188,-76456.330700
37.754769,-1036.288319,-1776.494261,-78448.178995
37.757249,-148.041188,-444.123565,-78448.178995
37.759729,2664.741391,740.205942,-78754.617194
37.762209,-3701.029710,-1184.329507,-79061.055394
37.764689,-3849.070898,-1184.329507,-76456.330700
37.767168,-7254.018232,-1184.329507,-79827.150892
37.769648,-1480.411884,-444.123565,-77222.426198
37.772128,888.247130,-1480.411884,-77682.083497
37.774608,-888.247130,1184.329507,-77682.083497
37.777088,2220.617826,-1036.288319,-78141.740796
37.779567,-4737.318029,-2220.617826,-78141.740796
37.782047,-11251.130318,-592.164754,-77835.302597
37.784527,-9918.759623,3256.906145,-76762.768900
37.787007,7254.018232,-444.123565,-78448.178995
37.789487,11103.089130,-5477.523971,-78601.398095
37.791967,8734.430116,2664.741391,-77528.864398
37.794446,6661.853478,888.247130,-78141.740796
37.796926,-5773.606348,-3997.112087,-76609.549800
37.799406,-4441.235652,-3256.906145,-78907.836294
37.801886,12583.501014,1184.329507,-76762.768900
37.804366,13175.665768,-296.082377,-78754.617194
37.806845,-2072.576638,740.205942,-75537.016103
37.809347,1184.329507,-296.082377,-77069.207099
37.811849,-1480.411884,-4885.359217,-81052.903688
37.814351,4293.194464,4737.318029,-74311.263306
37.816853,12139.377449,-1628.453072,-79520.712692
37.819355,14063.912898,-2072.576638,-79214.274493
37.821856,-740.205942,-1184.329507,-77069.207099
37.824358,888.247130,0.000000,-77988.521696
37.826860,-444.123565,-1480.411884,-79061.055394
37.829362,2664.741391,296.082377,-76149.892501
37.831864,7698.141797,1184.329507,-78141.740796
37.834366,6809.894666,-3997.112087,-77682.083497
37.836867,-4589.276840,-296.082377,-77069.207099
37.839369,592.164754,2220.617826,-77528.864398
37.841871,5625.565159,0.000000,-77835.302597
37.844373,10658.965565,-1036.288319,-77835.302597
37.846875,-296.082377,-1184.329507,-78294.959896
37.849377,1184.329507,2220.617826,-77069.207099
37.851878,6809.894666,-3256.906145,-78448.178995
37.854380,1924.535449,-888.247130,-76915.987999
37.856882,3849.070898,3256.906145,-75996.673402
37.859384,14804.118840,-3552.988522,-79520.712692
37.861886,888.247130,-444.123565,-77528.864398
37.864388,-4145.153275,740.205942,-77222.426198
37.866890,1924.535449,-1036.288319,-77988.521696
37.869391,-444.123565,-2812.782580,-79367.493593
37.871893,5477.523971,2368.659014,-75383.797003
37.874395,18357.107362,-1776.494261,-78754.617194
37.876897,4589.276840,-1628.453072,-79520.712692
37.879399,-1184.329507,1628.453072,-76303.111601
37.881901,-5477.523971,-2812.782580,-78601.398095
37.884402,444.123565,-1776.494261,-75537.016103
37.886904,5181.441594,3256.906145,-77069.207099
37.889406,2516.700203,-444.123565,-81512.560987
37.891908,-3108.864956,-6217.729913,-77682.083497
37.894410,-11991.336260,0.000000,-77682.083497
37.896912,-7698.141797,3997.112087,-77222.426198
37.899413,7698.141797,-2072.576638,-78601.398095
37.901915,10214.842000,-3701.029710,-80133.589091
37.904417,-5033.400406,1924.535449,-77069.207099
37.906919,-6513.812290,740.205942,-78141.740796
37.909435,-6069.688724,-2368.659014,-80440.027290
37.911951,-592.164754,-3997.112087,-77682.083497
37.914467,296.082377,2220.617826,-77528.864398
37.916982,10807.006753,-1480.411884,-78907.836294
37.919498,-2516.700203,-2368.659014,-78907.836294
37.922014,-8142.265362,888.247130,-76149.892501
37.924530,-3997.112087,-1184.329507,-79827.150892
37.927046,-1184.329507,-3404.947333,-79673.931792
37.929562,1036.288319,592.164754,-76149.892501
37.932078,1480.411884,-296.082377,-77682.083497
37.934594,888.247130,-2368.659014,-79673.931792
37.937109,-1628.453072,-740.205942,-78448.178995
37.939625,-6365.771101,-148.041188,-77375.645298
37.942141,-1776.494261,888.247130,-78601.398095
37.944657,-1332.370696,-1332.370696,-78294.959896
37.947173,1332.370696,-148.041188,-77222.426198
37.949689,-2664.741391,-3108.864956,-80899.684589
37.952205,-1924.535449,-444.123565,-77528.864398
37.954721,-4885.359217,1036.288319,-77528.864398
37.957236,-5773.606348,0.000000,-77528.864398
37.959752,-4589.276840,-148.041188,-77069.207099
37.962268,-7550.100608,-1036.288319,-79520.712692
37.964784,5033.400406,-592.164754,-76456.330700
37.967300,4737.318029,-3256.906145,-78601.398095
37.969816,-4885.359217,1332.370696,-77835.302597
37.972332,-4885.359217,1184.329507,-76915.987999
37.974848,-8586.388927,592.164754,-78601.398095
37.977363,2812.782580,-2664.741391,-77835.302597
37.979879,12139.377449,-3108.864956,-76609.549800
37.982395,14804.118840,-1480.411884,-79214.274493
37.984911,7846.182985,3108.864956,-77528.864398
37.987427,-9474.636058,740.205942,-76609.549800
37.989943,-592.164754,-4737.318029,-79673.931792
37.992459,14359.995275,-2960.823768,-76915.987999
37.994975,2812.782580,-296.082377,-79367.493593
37.997490,296.082377,2368.659014,-75690.235202
38.000006,1036.288319,-1184.329507,-78907.836294
38.002522,-592.164754,-3552.988522,-79061.055394
38.005038,-2960.823768,3997.112087,-77069.207099
38.007554,13471.748144,-740.205942,-79520.712692
38.010079,14211.954086,-2960.823768,-78141.740796
38.012605,888.247130,592.164754,-78294.959896
38.015131,148.041188,-148.041188,-80133.589091
38.017656,3552.988522,-2812.782580,-79061.055394
38.020182,2516.700203,148.041188,-77835.302597
38.022707,5181.441594,0.000000,-76609.549800
38.025233,8438.347739,-2960.823768,-79520.712692
38.027759,-3701.029710,-1776.494261,-79061.055394
38.030284,9770.718434,2812.782580,-74617.701505
38.032810,7105.977043,-3256.906145,-81206.122788
38.035335,-2072.576638,444.123565,-76762.768900
38.037861,7402.059420,-444.123565,-77835.302597
38.040386,6661.853478,-1924.535449,-80593.246390
38.042912,6809.894666,-2812.782580,-79061.055394
38.045438,0.000000,1332.370696,-77375.645298
38.047963,3108.864956,2220.617826,-79673.931792
38.050489,14952.160028,-3849.070898,-77222.426198
38.053014,-5625.565159,-1184.329507,-78294.959896
38.055540,-4737.318029,1776.494261,-76609.549800
38.058065,8290.306550,-5181.441594,-77835.302597
38.060591,6661.853478,-2368.659014,-79520.712692
38.063117,11547.212695,1036.288319,-75230.577904
38.065642,9770.718434,-444.123565,-78754.617194
38.068168,-4293.194464,-4293.194464,-79980.369991
38.070693,-7402.059420,0.000000,-74311.263306
38.073219,-3997.112087,444.123565,-80593.246390
38.075744,9918.759623,1332.370696,-78141.740796
38.078270,-1776.494261,-2664.741391,-78601.398095
38.080796,-10214.842000,-1184.329507,-77988.521696
38.083321,444.123565,3256.906145,-76149.892501
38.085847,-444.123565,-3108.864956,-79214.274493
38.088372,444.123565,148.041188,-75690.235202
38.090898,7550.100608,148.041188,-78294.959896
38.093423,-2516.700203,-2812.782580,-79520.712692
38.095949,-18653.189738,3108.864956,-74464.482406
38.098475,-9918.759623,1184.329507,-77988.521696
38.101000,5033.400406,-5477.523971,-79061.055394
38.103526,444.123565,592.164754,-75843.454302
38.106051,-4885.359217,1628.453072,-75996.673402
38.108577,-592.164754,592.164754,-77069.207099
38.111107,-7846.182985,-2516.700203,-77682.083497
38.113637,-8290.306550,1036.288319,-74924.139704
38.116166,444.123565,-148.041188,-78294.959896
38.118696,9030.512492,-888.247130,-77682.083497
38.121226,0.000000,-444.123565,-74770.920605
38.123756,-10362.883188,2516.700203,-78141.740796
38.126286,-3256.906145,-1184.329507,-78907.836294
38.128815,5625.565159,-3552.988522,-77988.521696
38.131345,-1924.535449,1332.370696,-77682.083497
38.133875,-1480.411884,592.164754,-77528.864398
38.136405,-1184.329507,-2812.782580,-79980.369991
38.138935,-2516.700203,-2368.659014,-77069.207099
38.141464,-6809.894666,-296.082377,-76303.111601
38.143994,-4145.153275,2368.659014,-78907.836294
38.146524,0.000000,-1776.494261,-78294.959896
38.149054,-444.123565,148.041188,-77222.426198
38.151583,-1184.329507,-2812.782580,-78141.740796
38.154113,-3404.947333,1628.453072,-76762.768900
38.156643,-3256.906145,-296.082377,-77222.426198
38.159173,-14063.912898,0.000000,-77069.207099
38.161703,-6217.729913,3997.112087,-77222.426198
38.164232,12435.459826,-3849.070898,-80133.589091
38.166762,8734.430116,-4441.235652,-76762.768900
38.169292,9622.677246,3701.029710,-75843.454302
38.171822,-6809.894666,3404.947333,-78907.836294
38.174352,1480.411884,-4885.359217,-77682.083497
38.176881,7254.018232,-2072.576638,-76456.330700
38.179411,4293.194464,148.041188,-79061.055394
38.181941,8586.388927,2960.823768,-76149.892501
38.184471,1332.370696,-3701.029710,-79673.931792
38.187001,-296.082377,-296.082377,-75537.016103
38.189530,296.082377,1332.370696,-78141.740796
38.192060,8586.388927,-1036.288319,-77988.521696
38.194590,10510.924376,444.123565,-77528.864398
38.197120,5033.400406,-1776.494261,-77988.521696
38.199650,740.205942,-1036.288319,-78294.959896
38.202179,2664.741391,-1184.329507,-77988.521696
38.204709,1924.535449,740.205942,-77222.426198
38.207239,-1776.494261,1332.370696,-77835.302597
38.209769,8882.471304,-1332.370696,-76456.330700
38.212302,3849.070898,-3997.112087,-80593.246390
38.214836,-592.164754,1036.288319,-75996.673402
38.217369,5033.400406,2812.782580,-75230.577904
38.219903,5625.565159,-1332.370696,-80746.465489
38.222436,3701.029710,-1184.329507,-77069.207099
38.224969,296.082377,-1036.288319,-76762.768900
38.227503,6809.894666,-592.164754,-79214.274493
38.230036,6809.894666,-740.205942,-77682.083497
38.232570,1184.329507,444.123565,-76609.549800
38.235103,1036.288319,0.000000,-77988.521696
38.237637,888.247130,-1924.535449,-77988.521696
38.240170,7846.182985,-1332.370696,-77528.864398
38.242703,5921.647536,592.164754,-76762.768900
38.245237,14359.995275,-740.205942,-78294.959896
38.247770,12287.418637,-1036.288319,-77682.083497
38.250304,-4737.318029,-3552.988522,-77528.864398
38.252837,-11695.253884,1332.370696,-76915.987999
38.255371,5773.606348,-888.247130,-79673.931792
38.257904,2960.823768,740.205942,-77375.645298
38.260437,592.164754,1184.329507,-79061.055394
38.262971,-9918.759623,-592.164754,-78141.740796
38.265504,-5625.565159,148.041188,-79520.712692
38.268038,-6661.853478,2072.576638,-76762.768900
38.270571,6217.729913,-1776.494261,-79673.931792
38.273105,13027.624579,-3256.906145,-79367.493593
38.275638,-5773.606348,-1184.329507,-77528.864398
38.278171,-17320.819043,2220.617826,-77069.207099
38.280705,-6809.894666,-444.123565,-77835.302597
38.283238,2812.782580,-3701.029710,-79214.274493
38.285772,3256.906145,-2072.576638,-76915.987999
38.288305,1924.535449,592.164754,-75843.454302
38.290839,-444.123565,-296.082377,-80286.808190
38.293372,-6957.935855,148.041188,-77222.426198
38.295905,-7402.059420,-1036.288319,-78448.178995
38.298439,2812.782580,-1924.535449,-78294.959896
38.300972,1628.453072,-592.164754,-78294.959896
38.303506,-2072.576638,-296.082377,-77222.426198
38.306039,-3997.112087,2072.576638,-73851.606007
38.308573,-6365.771101,-2368.659014,-80440.027290
38.311106,-4145.153275,444.123565,-74464.482406
38.313640,3108.864956,296.082377,-77375.645298
38.316174,1332.370696,-1480.411884,-77375.645298
38.318709,-7402.059420,-888.247130,-78448.178995
38.321243,-6661.853478,-1036.288319,-78141.740796
38.323777,-2960.823768,-1480.411884,-76915.987999
38.326311,-4737.318029,2368.659014,-77069.207099
38.328846,4293.194464,2220.617826,-76762.768900
38.331380,2812.782580,-2368.659014,-79520.712692
38.333914,-6513.812290,-1776.494261,-77682.083497
38.336448,-8290.306550,1480.411884,-75843.454302
38.338983,-8290.306550,-148.041188,-78141.740796
38.341517,-3701.029710,1924.535449,-76762.768900
38.344051,9030.512492,-1628.453072,-79673.931792
38.346585,16580.613101,-3849.070898,-78294.959896
38.349120,8142.265362,740.205942,-76303.111601
38.351654,-7846.182985,296.082377,-77528.864398
38.354188,-1480.411884,-2072.576638,-77682.083497
38.356722,11843.295072,-3108.864956,-78448.178995
38.359256,6513.812290,740.205942,-77835.302597
38.361791,7994.224174,3701.029710,-75690.235202
38.364325,-1332.370696,-6069.688724,-80286.808190
38.366859,-2812.782580,2072.576638,-75690.235202
38.369393,2368.659014,-444.123565,-78294.959896
38.371928,10214.842000,-2368.659014,-77528.864398
38.374462,4293.194464,-592.164754,-77069.207099
38.376996,6217.729913,444.123565,-76915.987999
38.379530,4293.194464,-1776.494261,-79673.931792
38.382065,1776.494261,-2368.659014,-76456.330700
38.384599,3849.070898,3108.864956,-76303.111601
38.387133,3256.906145,-296.082377,-78601.398095
38.389667,3701.029710,-2664.741391,-76915.987999
38.392202,6217.729913,-1776.494261,-78907.836294
38.394736,3108.864956,0.000000,-80133.589091
38.397270,8586.388927,444.123565,-77528.864398
38.399804,6069.688724,-444.123565,-78907.836294
38.402339,3552.988522,-1480.411884,-79061.055394
38.404873,1036.288319,-592.164754,-76915.987999
38.407407,4737.318029,-1480.411884,-80440.027290
38.409941,4441.235652,1184.329507,-76762.768900
38.412475,4441.235652,-592.164754,-77375.645298
38.415010,-2664.741391,-888.247130,-78141.740796
38.417546,-444.123565,-1480.411884,-78601.398095
38.420082,12139.377449,-1036.288319,-76149.892501
38.422618,11695.253884,-740.205942,-80286.808190
38.425154,2368.659014,2812.782580,-77069.207099
38.427690,-2516.700203,-3404.947333,-77988.521696
38.430226,-3108.864956,-592.164754,-76303.111601
38.432762,-3849.070898,1628.453072,-77222.426198
38.435297,7550.100608,0.000000,-78141.740796
38.437833,-5625.565159,-5625.565159,-79980.369991
38.440369,-14656.077652,1332.370696,-75077.358804
38.442905,-4145.153275,3997.112087,-78294.959896
38.445441,5625.565159,-2812.782580,-77528.864398
38.447977,-1332.370696,-296.082377,-77682.083497
38.450513,6217.729913,-592.164754,-77988.521696
38.453049,-1480.411884,444.123565,-77988.521696
38.455585,-8438.347739,-3256.906145,-78754.617194
38.458121,-15100.201217,1184.329507,-75843.454302
38.460656,2812.782580,1332.370696,-80286.808190
38.463192,7105.977043,-1776.494261,-78907.836294
38.465728,740.205942,-2664.741391,-77222.426198
38.468264,-10362.883188,3108.864956,-76915.987999
38.470800,-6513.812290,-2368.659014,-79520.712692
38.473336,3552.988522,-1332.370696,-77222.426198
38.475872,-3997.112087,-1628.453072,-78448.178995
38.478408,-4441.235652,2072.576638,-76915.987999
38.480944,2516.700203,-888.247130,-79061.055394
38.483480,-5329.482782,-2220.617826,-76456.330700
38.486016,-1480.411884,-1036.288319,-75843.454302
38.488551,-5921.647536,1480.411884,-77069.207099
38.491087,1924.535449,-1776.494261,-78601.398095
38.493623,-592.164754,-1480.411884,-75230.577904
38.496159,-9622.677246,-592.164754,-78601.398095
38.498695,-1480.411884,-1332.370696,-77222.426198
38.501231,-888.247130,-740.205942,-77069.207099
38.503767,888.247130,888.247130,-76609.549800
38.506303,6809.894666,-592.164754,-77682.083497
38.508839,-3997.112087,-888.247130,-79980.369991
38.511375,-11103.089130,-2664.741391,-77835.302597
38.513911,-11991.336260,3849.070898,-76149.892501
38.516446,8586.388927,-592.164754,-80440.027290
38.518982,20429.683999,-6661.853478,-77682.083497
38.521517,1036.288319,2072.576638,-76609.549800
38.524053,-1036.288319,4885.359217,-79980.369991
38.526589,4737.318029,-5329.482782,-77528.864398
38.529124,-5773.606348,-3997.112087,-78294.959896
38.531660,4293.194464,4885.359217,-74770.920605
38.534195,14063.912898,2220.617826,-79980.369991
38.536731,4885.359217,-6661.853478,-79061.055394
38.539267,-7402.059420,148.041188,-75230.577904
38.541802,3404.947333,1776.494261,-79061.055394
38.544338,9326.594869,-3404.947333,-79061.055394
38.546874,7550.100608,-444.123565,-75230.577904
38.549409,5625.565159,1628.453072,-78448.178995
38.551945,8438.347739,-3701.029710,-78448.178995
38.554480,4441.235652,-3108.864956,-77069.207099
38.557016,1924.535449,1924.535449,-77375.645298
38.559552,3404.947333,2664.741391,-78448.178995
38.562087,4293.194464,-4441.235652,-78907.836294
38.564623,6365.771101,-592.164754,-77682.083497
38.567158,5477.523971,-740.205942,-79673.931792
38.569694,6661.853478,-148.041188,-77069.207099
38.572230,6957.935855,2220.617826,-77835.302597
38.574765,5921.647536,148.041188,-78294.959896
38.577301,4589.276840,-2072.576638,-77375.645298
38.579837,-6217.729913,-592.164754,-79367.493593
38.582372,7846.182985,592.164754,-77222.426198
38.584908,2368.659014,-1628.453072,-78601.398095
38.587443,3997.112087,1332.370696,-76149.892501
38.589979,3256.906145,-592.164754,-78294.959896
38.592515,11251.130318,-1332.370696,-77988.521696
38.595050,9326.594869,-296.082377,-78294.959896
38.597586,-3108.864956,-4441.235652,-79367.493593
38.600121,-6957.935855,888.247130,-76149.892501
38.602657,6661.853478,444.123565,-79214.274493
38.605193,3256.906145,1628.453072,-78601.398095
38.607728,-5033.400406,-148.041188,-77528.864398
38.610264,-7994.224174,-2664.741391,-78601.398095
38.612800,-7254.018232,-2220.617826,-78294.959896
38.615335,-7105.977043,2368.659014,-75537.016103
38.617871,9030.512492,-1184.329507,-78754.617194
38.620408,8290.306550,-1924.535449,-80440.027290
38.622944,-6069.688724,-592.164754,-76915.987999
38.625480,-13027.624579,1776.494261,-77069.207099
38.628016,-10362.883188,-1332.370696,-80286.808190
38.630553,1184.329507,-2220.617826,-77069.207099
38.633089,5329.482782,-296.082377,-78294.959896
38.635625,-1184.329507,-296.082377,-77069.207099
38.638161,-740.205942,-296.082377,-77682.083497
38.640697,-5477.523971,0.000000,-79061.055394
38.643234,888.247130,-1332.370696,-77528.864398
38.645770,3997.112087,-740.205942,-77528.864398
38.648306,-9918.759623,-1776.494261,-79980.369991
38.650842,-296.082377,3701.029710,-74311.263306
38.653379,-2960.823768,-3552.988522,-82431.875585
38.655915,-1924.535449,-1480.411884,-74924.139704
38.658451,-1480.411884,148.041188,-78448.178995
38.660987,-3552.988522,-592.164754,-79214.274493
38.663524,-1628.453072,-1776.494261,-76456.330700
38.666060,-1480.411884,-1628.453072,-75690.235202
38.668596,-8586.388927,-444.123565,-79367.493593
38.671132,5033.400406,444.123565,-75537.016103
38.673668,2812.782580,-888.247130,-79673.931792
38.676205,-3552.988522,-888.247130,-75843.454302
38.678741,-9622.677246,740.205942,-76609.549800
38.681277,-12287.418637,-1480.411884,-79520.712692
38.683813,-4885.359217,1332.370696,-75690.235202
38.686350,8734.430116,-3256.906145,-76915.987999
38.688886,14952.160028,-148.041188,-77682.083497
38.691422,13767.830521,296.082377,-77222.426198
38.693958,-13915.871710,2072.576638,-77835.302597
38.696495,1184.329507,-3108.864956,-79673.931792
38.699028,9178.553681,-4293.194464,-78294.959896
38.701562,6513.812290,2516.700203,-77375.645298
38.704095,13915.871710,3404.947333,-77069.207099
38.706629,-1776.494261,-6661.853478,-80133.589091
38.709162,-5033.400406,-296.082377,-76456.330700
38.711696,-148.041188,1924.535449,-77835.302597
38.714229,11695.253884,-1480.411884,-78448.178995
38.716763,8142.265362,-1332.370696,-77222.426198
38.719296,5033.400406,3256.906145,-76303.111601
38.721830,6513.812290,-3849.070898,-79827.150892
38.724363,-3701.029710,-1924.535449,-75230.577904
38.726897,-1628.453072,4589.276840,-77375.645298
38.729430,11399.171507,-1480.411884,-79520.712692
38.731964,11251.130318,-5181.441594,-79061.055394
38.734498,4293.194464,-1332.370696,-78294.959896
38.737031,2516.700203,592.164754,-77988.521696
38.739565,6365.771101,-1036.288319,-77682.083497
38.742098,3701.029710,-1332.370696,-77069.207099
38.744632,4293.194464,296.082377,-76762.768900
38.747165,1332.370696,-444.123565,-79827.150892
38.749699,740.205942,-1776.494261,-75996.673402
38.752232,-444.123565,444.123565,-77375.645298
38.754766,2960.823768,-296.082377,-77069.207099
38.757299,9770.718434,-296.082377,-77069.207099
38.759833,12731.542202,592.164754,-76456.330700
38.762366,1480.411884,-1184.329507,-78141.740796
38.764900,-5477.523971,-2072.576638,-77069.207099
38.767433,-3701.029710,-888.247130,-77375.645298
38.769967,3256.906145,1628.453072,-77222.426198
38.772500,5921.647536,1184.329507,-76456.330700
38.775034,-4145.153275,-2072.576638,-80133.589091
38.777568,-14656.077652,-444.123565,-78754.617194
38.780101,-5329.482782,2516.700203,-75690.235202
38.782635,296.082377,-296.082377,-78601.398095
38.785168,6513.812290,-3108.864956,-78754.617194
38.787702,8438.347739,0.000000,-76609.549800
38.790235,-10807.006753,-444.123565,-78754.617194
38.792769,-12879.583391,1184.329507,-74617.701505
38.795302,-10510.924376,-2664.741391,-79520.712692
38.797836,1480.411884,-888.247130,-77222.426198
38.800370,6069.688724,0.000000,-75843.454302
38.802904,-444.123565,148.041188,-77988.521696
38.805438,1036.288319,1184.329507,-76762.768900
38.807972,-9918.759623,-3849.070898,-77375.645298
38.810506,-1332.370696,148.041188,-77835.302597
38.813040,1332.370696,-740.205942,-79827.150892
38.815574,-888.247130,296.082377,-76762.768900
38.818108,-6513.812290,740.205942,-76915.987999
38.820642,-5181.441594,148.041188,-77988.521696
38.823176,-4589.276840,-1776.494261,-79214.274493
38.825710,-1480.411884,-1480.411884,-76149.892501
38.828244,-2664.741391,1628.453072,-78141.740796
38.830778,-6809.894666,-1036.288319,-77375.645298
38.833312,-5773.606348,-444.123565,-76915.987999
38.835846,1480.411884,-2220.617826,-77375.645298
38.838380,2516.700203,-740.205942,-77069.207099
38.840914,-1036.288319,444.123565,-77375.645298
38.843448,-10658.965565,-888.247130,-76456.330700
38.845982,-9918.759623,1924.535449,-79214.274493
38.848516,5181.441594,-1184.329507,-79061.055394
38.851050,11103.089130,-5773.606348,-76762.768900
38.853584,9474.636058,296.082377,-77835.302597
38.856118,11991.336260,3108.864956,-77835.302597
38.858652,-6957.935855,-1480.411884,-77988.521696
38.861186,-5181.441594,-2664.741391,-76915.987999
38.863720,9326.594869,-3256.906145,-79827.150892
38.866254,14508.036463,148.041188,-80440.027290
38.868788,6809.894666,-3404.947333,-76303.111601
38.871322,-3404.947333,-1332.370696,-77222.426198
38.873856,740.205942,1184.329507,-78601.398095
38.876390,2960.823768,-2072.576638,-78294.959896
38.878924,9474.636058,-592.164754,-77375.645298
38.881458,12139.377449,-444.123565,-76609.549800
38.883992,6661.853478,0.000000,-77988.521696
38.886527,740.205942,-4441.235652,-79061.055394
38.889061,-4737.318029,-888.247130,-78601.398095
38.891595,3701.029710,4145.153275,-76303.111601
38.894129,11399.171507,-4737.318029,-82125.437386
38.896663,4589.276840,-3849.070898,-77835.302597
38.899197,5181.441594,1924.535449,-77222.426198
38.901731,6809.894666,-1776.494261,-80440.027290
38.904266,7105.977043,-740.205942,-77375.645298
38.906801,3108.864956,296.082377,-78448.178995
38.909335,296.082377,-2368.659014,-81665.780087
38.911870,-296.082377,-444.123565,-77528.864398
38.914405,4441.235652,-1332.370696,-77682.083497
38.916940,6365.771101,444.123565,-77222.426198
38.919474,8586.388927,592.164754,-77069.207099
38.922009,5773.606348,-3108.864956,-79367.493593
38.924544,2072.576638,-1036.288319,-77069.207099
38.927079,-5773.606348,-1480.411884,-77682.083497
38.929613,-1184.329507,-1184.329507,-77375.645298
38.932148,1332.370696,3108.864956,-77222.426198
38.934683,2960.823768,-592.164754,-78601.398095
38.937217,-3997.112087,-4885.359217,-78448.178995
38.939752,-17320.819043,-296.082377,-77682.083497
38.942287,-6069.688724,3404.947333,-76149.892501
38.944822,6809.894666,-2516.700203,-79980.369991
38.947356,6069.688724,-4145.153275,-79367.493593
38.949891,1184.329507,2368.659014,-77375.645298
38.952426,-7402.059420,740.205942,-79520.712692
38.954960,-12879.583391,-444.123565,-77222.426198
38.957495,-4885.359217,-1924.535449,-76303.111601
38.960030,1184.329507,1184.329507,-80286.808190
38.962565,2812.782580,0.000000,-78294.959896
38.965099,1776.494261,-1924.535449,-77222.426198
38.967634,-4737.318029,296.082377,-76762.768900
38.970169,-3256.906145,-444.123565,-78294.959896
38.972703,-3256.906145,-2960.823768,-79520.712692
38.975238,1776.494261,148.041188,-75996.673402
38.977773,-4885.359217,-148.041188,-79061.055394
38.980308,-6809.894666,-1036.288319,-78448.178995
38.982842,-3108.864956,-592.164754,-75843.454302
38.985377,-2664.741391,-740.205942,-79214.274493
38.987912,-4737.318029,-740.205942,-77682.083497
38.990447,-2220.617826,148.041188,-76915.987999
38.992981,-3404.947333,-2368.659014,-77988.521696
38.995516,2516.700203,-2368.659014,-76609.549800
38.998051,-1628.453072,296.082377,-78601.398095
39.000585,-1480.411884,-296.082377,-77375.645298
39.003058,-6957.935855,148.041188,-76303.111601
39.005531,-11843.295072,1480.411884,-78601.398095
39.008004,4589.276840,-2072.576638,-78448.178995
39.010477,14656.077652,-6957.935855,-77375.645298
39.012950,11547.212695,2812.782580,-77069.207099
39.015422,5329.482782,3701.029710,-78448.178995
39.017895,-5329.482782,-1776.494261,-76456.330700
39.020368,-2368.659014,-3256.906145,-80440.027290
39.022841,13915.871710,0.000000,-77682.083497
39.025314,11547.212695,-592.164754,-78141.740796
39.027787,5477.523971,296.082377,-76609.549800
39.030259,-2960.823768,-1480.411884,-79520.712692
39.032732,4441.235652,-592.164754,-77835.302597
39.035205,-444.123565,-888.247130,-77528.864398
39.037678,11547.212695,592.164754,-78448.178995
39.040151,12731.542202,-3701.029710,-79980.369991
39.042624,3997.112087,2664.741391,-74770.920605
39.045096,2960.823768,-1184.329507,-79520.712692
39.047569,2072.576638,-3108.864956,-78907.836294
39.050042,-2960.823768,2072.576638,-78448.178995
39.052515,8734.430116,-888.247130,-79214.274493
39.054988,15396.283594,-6069.688724,-80593.246390
39.057461,1184.329507,-592.164754,-77988.521696
39.059933,4293.194464,1332.370696,-79061.055394
39.062406,4885.359217,-2072.576638,-80286.808190
39.064879,1480.411884,1332.370696,-76762.768900
39.067352,1332.370696,-1480.411884,-76456.330700
39.069825,3256.906145,-1924.535449,-78601.398095
39.072298,3997.112087,1036.288319,-76915.987999
39.074770,10955.047942,-148.041188,-76609.549800
39.077243,5033.400406,592.164754,-77069.207099
39.079716,5773.606348,-592.164754,-77069.207099
39.082189,-4293.194464,-4589.276840,-78141.740796
39.084662,-3552.988522,1924.535449,-75996.673402
39.087135,2368.659014,1036.288319,-80286.808190
39.089608,3404.947333,-3404.947333,-79061.055394
39.092080,-8290.306550,-1332.370696,-76915.987999
39.094553,-10510.924376,296.082377,-78601.398095
39.097026,-6661.853478,888.247130,-78601.398095
39.099499,-2072.576638,-592.164754,-76456.330700
39.101988,9770.718434,-2960.823768,-78141.740796
39.104478,5477.523971,-1480.411884,-77682.083497
39.106967,-9178.553681,2516.700203,-76456.330700
39.109457,-14952.160028,2516.700203,-78294.959896
39.111946,-5625.565159,-444.123565,-78448.178995
39.114436,4441.235652,-2516.700203,-78448.178995
39.116925,5773.606348,-296.082377,-75383.797003
39.119415,-5773.606348,1036.288319,-79214.274493
39.121904,-6365.771101,2516.700203,-76762.768900
39.124394,740.205942,-888.247130,-76456.330700
39.126883,-7846.182985,-3404.947333,-79061.055394
39.129373,-5329.482782,-444.123565,-76915.987999
39.131862,-2664.741391,0.000000,-77222.426198
39.134352,-3849.070898,-592.164754,-77528.864398
39.136841,-1776.494261,-1480.411884,-75690.235202
39.139331,-7550.100608,1628.453072,-78294.959896
39.141820,-1036.288319,1924.535449,-76609.549800
39.144310,-3997.112087,-740.205942,-76762.768900
39.146799,148.041188,740.205942,-76456.330700
39.149289,-1776.494261,-2220.617826,-77682.083497
39.151778,-3997.112087,-1480.411884,-76762.768900
39.154268,-6217.729913,-5033.400406,-77988.521696
39.156757,-4885.359217,3701.029710,-76915.987999
39.159247,-1184.329507,-740.205942,-79061.055394
39.161736,1332.370696,-4441.235652,-77069.207099
39.164226,17024.736666,-592.164754,-77988.521696
39.166715,14063.912898,-1480.411884,-79367.493593
39.169204,-11547.212695,4145.153275,-74158.044206
39.171694,1924.535449,-444.123565,-78141.740796
39.174183,8882.471304,-5773.606348,-79673.931792
39.176673,5625.565159,-3404.947333,-78294.959896
39.179162,3256.906145,4589.276840,-75690.235202
39.181652,4145.153275,-2072.576638,-81052.903688
39.184141,296.082377,-1924.535449,-76456.330700
39.186631,-3997.112087,1184.329507,-77069.207099
39.189120,8882.471304,592.164754,-77069.207099
39.191610,14359.995275,-3256.906145,-77069.207099
39.194099,4885.359217,148.041188,-76915.987999
39.196589,3108.864956,-296.082377,-78141.740796
39.199078,4885.359217,-740.205942,-78907.836294
39.201582,-3108.864956,-1184.329507,-78907.836294
39.204086,7402.059420,2812.782580,-73698.386908
39.206590,17616.901420,-4441.235652,-80440.027290
39.209093,1184.329507,-4589.276840,-77988.521696
39.211597,-1036.288319,5033.400406,-74004.825107
39.214101,5329.482782,-1480.411884,-81359.341888
39.216605,6217.729913,-2960.823768,-74464.482406
39.219109,-5625.565159,2960.823768,-76303.111601
39.221612,1924.535449,1480.411884,-78754.617194
39.224116,12287.418637,-3997.112087,-79520.712692
39.226620,11103.089130,592.164754,-76456.330700
39.229124,5921.647536,1924.535449,-77835.302597
39.231627,-3701.029710,-1036.288319,-78907.836294
39.234131,-1924.535449,-2072.576638,-78601.398095
39.236635,5477.523971,-2072.576638,-76149.892501
39.239139,-1628.453072,2664.741391,-78907.836294
39.241643,3849.070898,-1628.453072,-78601.398095
39.244146,-7105.977043,-3404.947333,-78294.959896
39.246650,-14211.954086,1924.535449,-77222.426198
39.249154,-5181.441594,1776.494261,-77069.207099
39.251658,7698.141797,-1480.411884,-79214.274493
39.254161,4737.318029,-4145.153275,-80133.589091
39.256665,1332.370696,-148.041188,-76609.549800
39.259169,-8290.306550,888.247130,-78754.617194
39.261673,-14508.036463,-296.082377,-76456.330700
39.264177,-3701.029710,0.000000,-76915.987999
39.266680,4441.235652,-1036.288319,-80746.465489
39.269184,-592.164754,-3256.906145,-77222.426198
39.271688,-1628.453072,1628.453072,-76456.330700
39.274192,148.041188,3108.864956,-77375.645298
39.276695,-1628.453072,-4885.359217,-79673.931792
39.279199,-6217.729913,-296.082377,-75843.454302
39.281703,-3997.112087,888.247130,-80899.684589
39.284207,1480.411884,-888.247130,-78907.836294
39.286711,-5477.523971,-2516.700203,-76762.768900
39.289214,-7994.224174,1184.329507,-77069.207099
39.291718,-740.205942,2368.659014,-78601.398095
39.294222,-1184.329507,-3108.864956,-78907.836294
39.296726,-2220.617826,-444.123565,-75843.454302
39.299229,3108.864956,148.041188,-78141.740796
39.301744,-2960.823768,-3552.988522,-79367.493593
39.304258,-10955.047942,-296.082377,-74924.139704
39.306772,-9918.759623,2664.741391,-76762.768900
39.309286,1480.411884,-1332.370696,-79673.931792
39.311800,13471.748144,-7105.977043,-77835.302597
39.314314,5033.400406,740.205942,-77069.207099
39.316828,9622.677246,888.247130,-79061.055394
39.319343,-3997.112087,-2368.659014,-77375.645298
39.321857,-2812.782580,-740.205942,-78601.398095
39.324371,10955.047942,-148.041188,-78294.959896
39.326885,8142.265362,-1480.411884,-78907.836294
39.329399,10510.924376,2664.741391,-76303.111601
39.331913,740.205942,-4441.235652,-79214.274493
39.334427,-3849.070898,1628.453072,-76149.892501
39.336942,1480.411884,0.000000,-78294.959896
39.339456,11251.130318,-296.082377,-77682.083497
39.341970,7846.182985,-1480.411884,-78754.617194
39.344484,2368.659014,-888.247130,-78294.959896
39.346998,4589.276840,-3552.988522,-79214.274493
39.349512,1628.453072,-1036.288319,-76915.987999
39.352026,6069.688724,2516.700203,-77835.302597
39.354541,6069.688724,-3404.947333,-79827.150892
39.357055,7550.100608,0.000000,-77375.645298
39.359569,6661.853478,-740.205942,-80899.684589
39.362083,2516.700203,-1036.288319,-79367.493593
39.364597,1184.329507,740.205942,-77835.302597
39.367111,1924.535449,-2516.700203,-80593.246390
39.369625,6809.894666,-1036.288319,-78141.740796
39.372140,3404.947333,-1924.535449,-78907.836294
39.374654,7846.182985,-296.082377,-78294.959896
39.377168,5921.647536,888.247130,-78448.178995
39.379682,444.123565,-2368.659014,-76456.330700
39.382196,-3701.029710,-592.164754,-76762.768900
39.384710,3849.070898,-1480.411884,-76303.111601
39.387224,-1924.535449,2368.659014,-79214.274493
39.389738,6217.729913,-296.082377,-76915.987999
39.392253,-6809.894666,-5921.647536,-79673.931792
39.394767,-15692.365970,2072.576638,-76609.549800
39.397281,-3552.988522,2960.823768,-76149.892501
39.399795,9622.677246,-2664.741391,-78448.178995
39.402317,5477.523971,-3552.988522,-79214.274493
39.404840,-3701.029710,1480.411884,-77528.864398
39.407363,-6069.688724,-296.082377,-78141.740796
39.409886,-11251.130318,-1036.288319,-76915.987999
39.412409,-8734.430116,-148.041188,-77528.864398
39.414932,-2368.659014,1628.453072,-79520.712692
39.417455,9622.677246,-1184.329507,-76609.549800
39.419978,-592.164754,-3404.947333,-78448.178995
39.422501,-14063.912898,592.164754,-77988.521696
39.425024,-6661.853478,2664.741391,-75843.454302
39.427547,8142.265362,-4589.276840,-80133.589091
39.430069,-6069.688724,-3108.864956,-78141.740796
39.432592,-11547.212695,3997.112087,-75383.797003
39.435115,740.205942,-888.247130,-82585.094684
39.437638,3404.947333,-2664.741391,-77222.426198
39.440161,-8142.265362,-1184.329507,-75690.235202
39.442684,-5181.441594,2960.823768,-76762.768900
39.445207,-148.041188,-2368.659014,-81512.560987
39.447730,2516.700203,-3701.029710,-76609.549800
39.450253,-8734.430116,1332.370696,-77835.302597
39.452776,-7698.141797,-1036.288319,-78601.398095
39.455299,-9030.512492,2072.576638,-78141.740796
39.457822,4589.276840,1184.329507,-76762.768900
39.460345,20133.601622,-6661.853478,-78754.617194
39.462868,4293.194464,1036.288319,-78754.617194
39.465391,-4145.153275,3256.906145,-77682.083497
39.467914,2960.823768,-3849.070898,-76303.111601
39.470437,592.164754,-5033.400406,-80440.027290
39.472960,9770.718434,5181.441594,-74770.920605
39.475483,9030.512492,-888.247130,-80133.589091
39.478006,9770.718434,-3849.070898,-76456.330700
39.480529,-3256.906145,-444.123565,-77528.864398
39.483052,1036.288319,1332.370696,-77069.207099
39.485575,3849.070898,-2220.617826,-77222.426198
39.488098,10362.883188,296.082377,-77682.083497
39.490621,9918.759623,-1332.370696,-79214.274493
39.493144,4589.276840,-1924.535449,-77682.083497
39.495667,-2812.782580,-1332.370696,-79367.493593
39.498190,7698.141797,2072.576638,-78754.617194
39.500713,1924.535449,-592.164754,-78294.959896
39.503243,10807.006753,0.000000,-77835.302597
39.505774,9622.677246,-3552.988522,-79061.055394
39.508304,-592.164754,-1184.329507,-77222.426198
39.510835,-2664.741391,1480.411884,-75996.673402
39.513365,1184.329507,-1036.288319,-80133.589091
39.515896,13767.830521,444.123565,-76456.330700
39.518426,2664.741391,-2516.700203,-79367.493593
39.520957,11103.089130,1332.370696,-77375.645298
39.523487,13471.748144,-1776.494261,-80133.589091
39.526018,-4441.235652,-444.123565,-76609.549800
39.528548,-4885.359217,148.041188,-77375.645298
39.531079,7846.182985,-4293.194464,-78907.836294
39.533609,1036.288319,-148.041188,-79673.931792
39.536140,-2516.700203,1184.329507,-76915.987999
39.538670,-6957.935855,-5625.565159,-79367.493593
39.541200,-13619.789333,-148.041188,-77835.302597
39.543731,-8586.388927,3404.947333,-75843.454302
39.546261,2664.741391,-740.205942,-78754.617194
39.548792,7254.018232,-2812.782580,-79827.150892
39.551322,2664.741391,592.164754,-74158.044206
39.553853,-12879.583391,-740.205942,-78448.178995
39.556383,-13175.665768,592.164754,-77222.426198
39.558914,-5329.482782,-1924.535449,-78141.740796
39.561444,5625.565159,1184.329507,-76609.549800
39.563975,3701.029710,-2812.782580,-76456.330700
39.566505,-5181.441594,-1332.370696,-78448.178995
39.569036,-5921.647536,2812.782580,-76762.768900
39.571566,1184.329507,-740.205942,-77682.083497
39.574097,-2664.741391,-2960.823768,-78294.959896
39.576627,-5181.441594,-296.082377,-75843.454302
39.579158,-7550.100608,2368.659014,-79061.055394
39.581688,592.164754,-1924.535449,-79673.931792
39.584218,1184.329507,-2220.617826,-77069.207099
39.586749,-3108.864956,2664.741391,-79061.055394
39.589279,148.041188,-1776.494261,-79061.055394
39.591810,444.123565,-1480.411884,-77375.645298
39.594340,-6809.894666,-296.082377,-77528.864398
39.596871,-8438.347739,-1184.329507,-77988.521696
39.599401,-8882.471304,888.247130,-78448.178995
39.601932,4293.194464,-148.041188,-78601.398095
39.604468,18061.024985,-3404.947333,-77375.645298
39.607005,2664.741391,-740.205942,-79367.493593
39.609542,7550.100608,2664.741391,-77835.302597
39.612078,-2664.741391,-2368.659014,-79673.931792
39.614615,888.247130,-3108.864956,-78448.178995
39.617152,10362.883188,-148.041188,-78448.178995
39.619688,9770.718434,1332.370696,-79980.369991
39.622225,8290.306550,888.247130,-75843.454302
39.624762,1332.370696,-4737.318029,-78907.836294
39.627298,-2220.617826,148.041188,-76762.768900
39.629835,2664.741391,2516.700203,-78754.617194
39.632372,10807.006753,-1628.453072,-76609.549800
39.634908,7698.141797,-1332.370696,-76762.768900
39.637445,740.205942,1332.370696,-75690.235202
39.639982,444.123565,-2072.576638,-78448.178995
39.642518,4441.235652,-444.123565,-75537.016103
39.645055,8734.430116,-1036.288319,-79520.712692
39.647592,11399.171507,592.164754,-76456.330700
39.650128,5477.523971,-3404.947333,-80440.027290
39.652665,1332.370696,-1036.288319,-78448.178995
39.655202,5625.565159,-296.082377,-77222.426198
39.657738,1036.288319,-148.041188,-80286.808190
39.660275,8734.430116,-888.247130,-77375.645298
39.662812,7698.141797,-592.164754,-78907.836294
39.665348,8734.430116,-1628.453072,-79214.274493
39.667885,5477.523971,-740.205942,-76456.330700
39.670422,-4145.153275,-1480.411884,-79367.493593
39.672958,-2516.700203,148.041188,-77069.207099
39.675495,888.247130,-1628.453072,-78601.398095
39.678031,4589.276840,3701.029710,-78294.959896
39.680568,-3256.906145,-4145.153275,-79673.931792
39.683105,-10362.883188,-3256.906145,-76456.330700
39.685641,-9770.718434,740.205942,-78448.178995
39.688178,-4589.276840,1924.535449,-78141.740796
39.690715,9474.636058,-1924.535449,-77988.521696
39.693251,3849.070898,-2220.617826,-78907.836294
39.695788,-5181.441594,740.205942,-77682.083497
39.698325,-16136.489536,2220.617826,-77375.645298
39.700861,-5773.606348,-1924.535449,-78907.836294
39.703398,-1184.329507,-888.247130,-78294.959896
39.705939,-2368.659014,888.247130,-78754.617194
39.708479,-1332.370696,-740.205942,-78448.178995
39.711020,3997.112087,-888.247130,-77069.207099
39.713560,-1184.329507,-2220.617826,-77835.302597
39.716101,-10214.842000,-296.082377,-75690.235202
39.718641,-6365.771101,888.247130,-75996.673402
39.721182,-1776.494261,-1776.494261,-79214.274493
39.723722,-6365.771101,740.205942,-75690.235202
39.726263,-3849.070898,-888.247130,-77375.645298
39.728804,1776.494261,-740.205942,-79061.055394
39.731344,3404.947333,-444.123565,-76149.892501
39.733885,-1036.288319,740.205942,-77069.207099
39.736425,-9326.594869,-296.082377,-79827.150892
39.738966,-8290.306550,-1776.494261,-78141.740796
39.741506,-5033.400406,1924.535449,-77835.302597
39.744047,5477.523971,-444.123565,-78601.398095
39.746587,16728.654289,-3701.029710,-77835.302597
39.749128,5329.482782,-148.041188,-78754.617194
39.751669,6957.935855,2516.700203,-76609.549800
39.754209,-7994.224174,-2220.617826,-78754.617194
39.756750,740.205942,-1924.535449,-78294.959896
39.759290,16284.530724,1332.370696,-76149.892501
39.761831,8882.471304,-148.041188,-79980.369991
39.764371,5477.523971,2072.576638,-75996.673402
39.766912,-1332.370696,-2220.617826,-79827.150892
39.769452,-1184.329507,-1628.453072,-76915.987999
39.771993,-148.041188,740.205942,-77222.426198
39.774534,7254.018232,740.205942,-77682.083497
39.777074,18209.066173,-2072.576638,-77528.864398
39.779615,1924.535449,-740.205942,-77375.645298
39.782155,-7846.182985,-2220.617826,-78448.178995
39.784696,8142.265362,2812.782580,-75843.454302
39.787236,17172.777854,-2664.741391,-79673.931792
39.789777,2516.700203,444.123565,-75996.673402
39.792317,4737.318029,1036.288319,-77375.645298
39.794858,2960.823768,-3997.112087,-80899.684589
39.797398,-296.082377,-888.247130,-75843.454302
39.799939,2516.700203,1332.370696,-77682.083497
39.802480,10510.924376,-1628.453072,-78907.836294
39.805020,12583.501014,-1924.535449,-77988.521696
39.807515,5329.482782,148.041188,-76915.987999
39.810010,-1628.453072,-1036.288319,-78601.398095
39.812504,-2664.741391,-1628.453072,-77835.302597
39.814999,5329.482782,-1184.329507,-77222.426198
39.817494,-2516.700203,2812.782580,-78294.959896
39.819988,7105.977043,-296.082377,-77069.207099
39.822483,-6809.894666,-6069.688724,-78907.836294
39.824978,-13915.871710,-444.123565,-78141.740796
39.827472,-12583.501014,4293.194464,-76149.892501
39.829967,8882.471304,-2368.659014,-78907.836294
39.832462,9178.553681,-2812.782580,-79214.274493
39.834957,-2516.700203,2072.576638,-76456.330700
39.837451,-8586.388927,-296.082377,-78294.959896
39.839946,-13323.706956,-592.164754,-77835.302597
39.842441,-9178.553681,-1184.329507,-76609.549800
39.844935,5921.647536,1332.370696,-79061.055394
39.847430,9474.636058,-2960.823768,-78907.836294
39.849925,-5477.523971,-2220.617826,-77835.302597
39.852419,-10955.047942,3701.029710,-77988.521696
39.854914,3256.906145,-2368.659014,-80133.589091
39.857409,-1036.288319,-5181.441594,-79214.274493
39.859904,-12139.377449,3108.864956,-77222.426198
39.862398,-4737.318029,0.000000,-80593.246390
39.864893,3256.906145,-3701.029710,-77682.083497
39.867388,-6217.729913,444.123565,-75996.673402
39.869882,-2072.576638,-2072.576638,-77988.521696
39.872377,-1036.288319,1332.370696,-76456.330700
39.874872,-4145.153275,-1628.453072,-79367.493593
39.877367,-12139.377449,-1332.370696,-75077.358804
39.879861,-11251.130318,3404.947333,-78601.398095
39.882356,6809.894666,-2960.823768,-79673.931792
39.884851,17024.736666,-5625.565159,-77069.207099
39.887345,7105.977043,3404.947333,-78294.959896
39.889840,2664.741391,3849.070898,-78294.959896
39.892335,-2812.782580,-4441.235652,-79214.274493
39.894829,-3108.864956,-3552.988522,-79061.055394
39.897324,11695.253884,-148.041188,-77835.302597
39.899819,14508.036463,0.000000,-79214.274493
39.902314,8290.306550,1628.453072,-75537.016103
39.904808,-4589.276840,-4293.194464,-78448.178995
39.907270,-2960.823768,1332.370696,-77682.083497
39.909731,5181.441594,-3849.070898,-78754.617194
39.912193,8290.306550,-2072.576638,-76762.768900
39.914655,2960.823768,2960.823768,-76456.330700
39.917116,13767.830521,-1036.288319,-78448.178995
39.919578,-1480.411884,-6365.771101,-80593.246390
39.922039,-1924.535449,5181.441594,-76303.111601
39.924501,14952.160028,-1924.535449,-83657.628382
39.926963,7994.224174,-2812.782580,-77682.083497
39.929424,4737.318029,2220.617826,-77069.207099
39.931886,5773.606348,-4441.235652,-81512.560987
39.934347,296.082377,-2812.782580,-79673.931792
39.936809,1480.411884,2220.617826,-74924.139704
39.939271,14804.118840,-1036.288319,-78907.836294
39.941732,7254.018232,-1480.411884,-79367.493593
39.944194,5625.565159,0.000000,-76149.892501
39.946655,-5625.565159,-2960.823768,-79367.493593
39.949117,-6069.688724,-148.041188,-76915.987999
39.951579,1480.411884,592.164754,-77682.083497
39.954040,6661.853478,1776.494261,-78294.959896
39.956502,-3404.947333,-4737.318029,-79214.274493
39.958963,-14211.954086,-740.205942,-75996.673402
39.961425,-10955.047942,1776.494261,-78448.178995
39.963887,-4293.194464,444.123565,-77375.645298
39.966348,12731.542202,-2516.700203,-77375.645298
39.968810,4441.235652,-2516.700203,-79520.712692
39.971272,592.164754,296.082377,-75230.577904
39.973733,-14952.160028,-148.041188,-79061.055394
39.976195,-8734.430116,-296.082377,-76762.768900
39.978656,-148.041188,-1036.288319,-79061.055394
39.981118,4293.194464,-148.041188,-79061.055394
39.983580,-4589.276840,-1628.453072,-76456.330700
39.986061,888.247130,2368.659014,-77835.302597
39.988543,-2368.659014,-1776.494261,-80746.465489
39.991024,-12583.501014,-148.041188,-76762.768900
39.993506,-6069.688724,-296.082377,-77835.302597
39.995988,1332.370696,-1776.494261,-79061.055394
39.998469,-2960.823768,1036.288319,-75996.673402
40.000951,-3404.947333,-2664.741391,-75996.673402
40.003432,-3997.112087,-148.041188,-78601.398095
40.005914,1184.329507,-296.082377,-77528.864398
40.008396,-4441.235652,-592.164754,-77528.864398
40.010877,-15692.365970,-148.041188,-77222.426198
40.013359,-10066.800811,3404.947333,-77682.083497
40.015841,5181.441594,-2516.700203,-78754.617194
40.018322,17024.736666,-4293.194464,-76149.892501
40.020804,9474.636058,1628.453072,-77988.521696
40.023285,1924.535449,3404.947333,-78754.617194
40.025767,-2220.617826,-1924.535449,-78754.617194
40.028249,0.000000,-4441.235652,-80133.589091
40.030730,10658.965565,-1036.288319,-77835.302597
40.033212,9474.636058,888.247130,-78601.398095
40.035693,10658.965565,1184.329507,-77222.426198
40.038175,-148.041188,-4441.235652,-79214.274493
40.040657,-2812.782580,1184.329507,-77069.207099
40.043138,1628.453072,-740.205942,-77682.083497
40.045620,5921.647536,-888.247130,-78294.959896
40.048102,7698.141797,1776.494261,-77528.864398
40.050583,7994.224174,-2960.823768,-77528.864398
40.053065,-1036.288319,-3256.906145,-77375.645298
40.055546,740.205942,3256.906145,-76149.892501
40.058028,10807.006753,-1332.370696,-78448.178995
40.060510,7254.018232,-740.205942,-76456.330700
40.062991,5625.565159,-148.041188,-77835.302597
40.065473,3256.906145,-1480.411884,-78141.740796
40.067954,3108.864956,-1628.453072,-77375.645298
40.070436,6513.812290,1036.288319,-75996.673402
40.072918,15100.201217,148.041188,-78754.617194
40.075399,10807.006753,-1776.494261,-77835.302597
40.077881,592.164754,-1776.494261,-77682.083497
40.080363,-5477.523971,-1332.370696,-77988.521696
40.082844,3256.906145,-592.164754,-77835.302597
40.085345,-3404.947333,2368.659014,-79520.712692
40.087846,3256.906145,-1036.288319,-77988.521696
40.090347,-6957.935855,-4293.194464,-79520.712692
40.092848,-14508.036463,-740.205942,-79367.493593
40.095349,-8142.265362,3256.906145,-74617.701505
40.097850,6069.688724,-2220.617826,-78907.836294
40.100351,9326.594869,-3108.864956,-78448.178995
40.102852,-1776.494261,2516.700203,-75996.673402
40.105352,-12139.377449,148.041188,-78141.740796
40.107853,-12731.542202,296.082377,-77682.083497
40.110354,888.247130,-2960.823768,-77988.521696
40.112855,6365.771101,-888.247130,-78141.740796
40.115356,-4885.359217,-1480.411884,-77222.426198
40.117857,-2220.617826,2664.741391,-77835.302597
40.120358,-1776.494261,-1332.370696,-78141.740796
40.122859,-7698.141797,-148.041188,-74770.920605
40.125360,-6365.771101,-444.123565,-78907.836294
40.127861,-148.041188,-444.123565,-78294.959896
40.130362,444.123565,148.041188,-78294.959896
40.132862,-3997.112087,-1776.494261,-78754.617194
40.135363,-1332.370696,888.247130,-78294.959896
40.137864,-296.082377,-1776.494261,-79061.055394
40.140365,-4885.359217,-1480.411884,-77835.302597
40.142866,-15396.283594,296.082377,-77682.083497
40.145367,-7254.018232,2960.823768,-78141.740796
40.147868,11991.336260,-4589.276840,-81206.122788
40.150369,10214.842000,-5625.565159,-75690.235202
40.152870,7550.100608,4145.153275,-75537.016103
40.155371,592.164754,4145.153275,-79061.055394
40.157872,1776.494261,-5625.565159,-77988.521696
40.160373,-3108.864956,-2960.823768,-76915.987999
40.162873,10510.924376,296.082377,-78907.836294
40.165374,19097.313304,-148.041188,-77528.864398
40.167875,5625.565159,-740.205942,-75996.673402
40.170376,-5477.523971,-888.247130,-77835.302597
40.172877,4441.235652,-444.123565,-77375.645298
40.175378,8438.347739,-4293.194464,-78907.836294
40.177879,5773.606348,296.082377,-77069.207099
40.180380,10066.800811,2960.823768,-77528.864398
40.182881,4737.318029,-4441.235652,-81052.903688
40.185396,-740.205942,-1036.288319,-76456.330700
40.187912,5329.482782,1628.453072,-77988.521696
40.190428,9622.677246,-1776.494261,-81052.903688
40.192944,7402.059420,148.041188,-76149.892501
40.195459,4293.194464,-888.247130,-80440.027290
40.197975,2516.700203,-2516.700203,-79367.493593
40.200491,4145.153275,0.000000,-75537.016103
40.203007,7698.141797,888.247130,-77069.207099
40.205522,11547.212695,-296.082377,-77069.207099
40.208038,2812.782580,-2812.782580,-78448.178995
40.210554,-4589.276840,-1480.411884,-76609.549800
40.213070,-592.164754,-1924.535449,-76915.987999
40.215585,-3404.947333,2516.700203,-77375.645298
40.218101,7402.059420,2516.700203,-76609.549800
40.220617,-6661.853478,-4145.153275,-78448.178995
40.223132,-14952.160028,-296.082377,-77528.864398
40.225648,-3108.864956,2960.823768,-76762.768900
40.228164,-888.247130,-1776.494261,-79673.931792
40.230680,7698.141797,-592.164754,-77528.864398
40.233195,2368.659014,-2368.659014,-79980.369991
40.235711,-4737.318029,296.082377,-78294.959896
40.238227,-10658.965565,1628.453072,-77528.864398
40.240743,-12435.459826,-3552.988522,-79980.369991
40.243258,-296.082377,888.247130,-76149.892501
40.245774,4441.235652,-1480.411884,-78141.740796
40.248290,-3404.947333,-1184.329507,-78754.617194
40.250806,-5625.565159,1924.535449,-75996.673402
40.253321,-6809.894666,0.000000,-77988.521696
40.255837,-2516.700203,-2220.617826,-77069.207099
40.258353,-6365.771101,0.000000,-76303.111601
40.260868,-1184.329507,2220.617826,-77528.864398
40.263384,2812.782580,-444.123565,-76149.892501
40.265900,1776.494261,-2664.741391,-78601.398095
40.268416,-3849.070898,0.000000,-78141.740796
40.270931,-7698.141797,-1184.329507,-78754.617194
40.273447,-7994.224174,-740.205942,-77222.426198
40.275963,-7550.100608,2812.782580,-77528.864398
40.278479,4589.276840,-888.247130,-79367.493593
40.280994,18505.148550,-4293.194464,-78141.740796
40.283510,9622.677246,1480.411884,-78294.959896
40.286038,-1924.535449,2960.823768,-78601.398095
40.288567,-3849.070898,-1924.535449,-76762.768900
40.291095,1036.288319,-3701.029710,-79980.369991
40.293623,12139.377449,444.123565,-76915.987999
40.296152,13323.706956,-592.164754,-78601.398095
40.298680,7105.977043,1036.288319,-77222.426198
40.301208,-1332.370696,-2664.741391,-77835.302597
40.303737,-296.082377,0.000000,-77069.207099
40.306265,4589.276840,-1776.494261,-79520.712692
40.308793,9474.636058,-1776.494261,-77375.645298
40.311322,-444.123565,1776.494261,-77069.207099
40.313850,8142.265362,-1480.411884,-76609.549800
40.316378,3404.947333,-4589.276840,-79061.055394
40.318907,444.123565,3701.029710,-75077.358804
40.321435,7550.100608,-296.082377,-78907.836294
40.323963,7994.224174,-2960.823768,-76762.768900
40.326492,740.205942,444.123565,-77528.864398
40.329020,6365.771101,-148.041188,-77682.083497
40.331548,9770.718434,740.205942,-77528.864398
40.334077,10362.883188,-592.164754,-78601.398095
40.336605,8882.471304,1332.370696,-75843.454302
40.339133,-1628.453072,-2960.823768,-80440.027290
40.341662,-3404.947333,-2664.741391,-77528.864398
40.344190,6217.729913,-592.164754,-77528.864398
40.346718,-3552.988522,1776.494261,-79061.055394
40.349247,1036.288319,-444.123565,-77375.645298
40.351775,-9622.677246,-1184.329507,-77069.207099
40.354303,-11695.253884,-1924.535449,-77988.521696
40.356831,-9918.759623,3108.864956,-76149.892501
40.359360,6661.853478,-1628.453072,-79520.712692
40.361888,4145.153275,-2072.576638,-77835.302597
40.364416,-740.205942,2368.659014,-75537.016103
40.366945,-11547.212695,-1332.370696,-79673.931792
40.369473,-7550.100608,296.082377,-76303.111601
40.372001,-6957.935855,-4145.153275,-79061.055394
40.374530,-1036.288319,148.041188,-77375.645298
40.377058,888.247130,-1036.288319,-75537.016103
40.379586,-3849.070898,0.000000,-78907.836294
40.382115,-4441.235652,888.247130,-77222.426198
40.384643,-13323.706956,-2664.741391,-77835.302597
40.387176,-2812.782580,-296.082377,-78294.959896
40.389714,1776.494261,-888.247130,-78294.959896
40.392251,-740.205942,-592.164754,-77222.426198
40.394788,-2516.700203,1924.535449,-79061.055394
40.397326,-740.205942,-592.164754,-79673.931792
40.399863,-4885.359217,-1924.535449,-78448.178995
40.402400,-14063.912898,-296.082377,-77069.207099
40.404938,-6809.894666,3404.947333,-78294.959896
40.407475,9474.636058,-2368.659014,-79980.369991
40.410012,15248.242405,-5921.647536,-77222.426198
40.412550,3108.864956,740.205942,-78907.836294
40.415087,6809.894666,4589.276840,-77835.302597
40.417625,-1036.288319,-3849.070898,-78448.178995
40.420162,-740.205942,-3997.112087,-77835.302597
40.422699,8438.347739,1480.411884,-76915.987999
40.425237,15248.242405,-740.205942,-78907.836294
40.427774,8882.471304,0.000000,-75843.454302
40.430311,148.041188,-1184.329507,-77222.426198
40.432849,-3552.988522,0.000000,-79061.055394
40.435386,5773.606348,-740.205942,-77375.645298
40.437923,12139.377449,-1036.288319,-77682.083497
40.440461,1628.453072,-296.082377,-77835.302597
40.442998,-6513.812290,-2072.576638,-77682.083497
40.445536,10955.047942,2516.700203,-76762.768900
40.448073,14508.036463,-4293.194464,-80899.684589
40.450610,-3256.906145,888.247130,-75996.673402
40.453148,7254.018232,2368.659014,-77375.645298
40.455685,12731.542202,-7698.141797,-80746.465489
40.458222,-6069.688724,-1332.370696,-74924.139704
40.460760,7550.100608,4145.153275,-78141.740796
40.463297,19541.436869,296.082377,-81818.999186
40.465834,11695.253884,-1332.370696,-77222.426198
40.468372,-4885.359217,-2368.659014,-76303.111601
40.470909,-9326.594869,296.082377,-79214.274493
40.473447,5921.647536,-740.205942,-79367.493593
40.475984,5921.647536,3108.864956,-76762.768900
40.478521,-11251.130318,-888.247130,-79367.493593
40.481059,-4885.359217,-1924.535449,-76456.330700
40.483596,-10807.006753,-3256.906145,-80286.808190
40.486133,-6365.771101,0.000000,-76456.330700
40.488678,7254.018232,740.205942,-75843.454302
40.491224,3404.947333,-3997.112087,-82738.313784
40.493769,-2516.700203,1628.453072,-74004.825107
40.496314,-14804.118840,0.000000,-77375.645298
40.498859,-9326.594869,-592.164754,-79673.931792
40.501404,1628.453072,-1332.370696,-76609.549800
40.503949,888.247130,-592.164754,-77682.083497
40.506494,-5773.606348,-1036.288319,-76762.768900
40.509039,-3849.070898,2072.576638,-76915.987999
40.511584,-10807.006753,-1924.535449,-80899.684589
40.514130,-2960.823768,-2220.617826,-76762.768900
40.516675,-6365.771101,740.205942,-78907.836294
40.519220,5921.647536,-1776.494261,-78601.398095
40.521765,-592.164754,444.123565,-77528.864398
40.524310,-5033.400406,-2072.576638,-79061.055394
40.526855,-5181.441594,592.164754,-76915.987999
40.529400,-11399.171507,-1924.535449,-79520.712692
40.531945,-6513.812290,3849.070898,-75690.235202
40.534490,10658.965565,-2072.576638,-79520.712692
40.537036,9770.718434,-7550.100608,-78448.178995
40.539581,8438.347739,3701.029710,-75996.673402
40.542126,7254.018232,296.082377,-80286.808190
40.544671,-3552.988522,-2516.700203,-75843.454302
40.547216,-4441.235652,-444.123565,-78141.740796
40.549761,19689.478057,-1776.494261,-79980.369991
40.552306,12435.459826,-2812.782580,-79214.274493
40.554851,3701.029710,148.041188,-75996.673402
40.557396,-2664.741391,1184.329507,-77682.083497
40.559942,4145.153275,-1776.494261,-79367.493593
40.562487,2516.700203,-2664.741391,-76915.987999
40.565032,4145.153275,148.041188,-77988.521696
40.567577,5921.647536,-888.247130,-78754.617194
40.570122,14063.912898,-1628.453072,-76303.111601
40.572667,2220.617826,-2664.741391,-78601.398095
40.575212,1776.494261,1036.288319,-76303.111601
40.577757,11399.171507,2072.576638,-77222.426198
40.580302,6217.729913,-4293.194464,-80899.684589
40.582847,3256.906145,0.000000,-75230.577904
40.585393,5625.565159,-1036.288319,-80286.808190
40.587938,15100.201217,-1776.494261,-77988.521696
40.590489,4589.276840,2664.741391,-75843.454302
40.593041,3849.070898,-740.205942,-79827.150892
40.595593,-1184.329507,-2516.700203,-76762.768900
40.598144,1332.370696,-4441.235652,-79061.055394
40.600696,-888.247130,2812.782580,-77835.302597
40.603247,4589.276840,-296.082377,-78448.178995
40.605799,-10214.842000,-3108.864956,-79061.055394
40.608351,-15988.448347,148.041188,-76609.549800
40.610902,-5625.565159,1776.494261,-77528.864398
40.613454,4737.318029,-2220.617826,-78907.836294
40.616006,4737.318029,-2516.700203,-78907.836294
40.618557,2812.782580,592.164754,-77988.521696
40.621109,-10214.842000,1480.411884,-77988.521696
40.623660,-10658.965565,-1036.288319,-78294.959896
40.626212,-4589.276840,-1036.288319,-77528.864398
40.628764,-3701.029710,-444.123565,-79367.493593
40.631315,6365.771101,0.000000,-76456.330700
40.633867,-4293.194464,-1184.329507,-79520.712692
40.636419,-7402.059420,1776.494261,-76303.111601
40.638970,-16728.654289,1184.329507,-77988.521696
40.641522,-5773.606348,-1480.411884,-76762.768900
40.644073,1924.535449,0.000000,-75230.577904
40.646625,1628.453072,-888.247130,-77069.207099
40.649177,-3404.947333,-148.041188,-75537.016103
40.651728,-9326.594869,-888.247130,-77069.207099
40.654280,-3404.947333,-444.123565,-76762.768900
40.656831,-12139.377449,-592.164754,-77375.645298
40.659383,-3997.112087,3701.029710,-75843.454302
40.661935,13471.748144,-2812.782580,-77988.521696
40.664486,15100.201217,-3552.988522,-76762.768900
40.667038,8290.306550,1628.453072,-77682.083497
40.669590,-7402.059420,3108.864956,-76149.892501
40.672141,296.082377,-2812.782580,-78294.959896
40.674693,8142.265362,-3552.988522,-78141.740796
40.677244,8438.347739,2072.576638,-76762.768900
40.679796,13915.871710,592.164754,-78141.740796
40.682348,6365.771101,-2664.741391,-77528.864398
40.684899,-1184.329507,444.123565,-76609.549800
40.687451,-1036.288319,740.205942,-79367.493593
40.690003,8586.388927,-2812.782580,-79367.493593
40.692558,11547.212695,740.205942,-75843.454302
40.695114,-2220.617826,-1776.494261,-78294.959896
40.697670,9622.677246,0.000000,-75996.673402
40.700225,8586.388927,-2664.741391,-79061.055394
40.702781,-1924.535449,1924.535449,-76609.549800
40.705336,8290.306550,2516.700203,-74770.920605
40.707892,12879.583391,-4589.276840,-79980.369991
40.710448,-4145.153275,-1332.370696,-75690.235202
40.713003,4737.318029,2220.617826,-73238.729609
40.715559,6661.853478,2220.617826,-81512.560987
40.718115,9326.594869,-2960.823768,-77988.521696
40.720670,-3108.864956,-1332.370696,-75537.016103
40.723226,-6809.894666,-444.123565,-78907.836294
40.725782,4293.194464,1036.288319,-77222.426198
40.728337,6069.688724,592.164754,-77069.207099
40.730893,-8882.471304,-2072.576638,-78754.617194
40.733449,-15692.365970,2812.782580,-75537.016103
40.736004,-2072.576638,1184.329507,-79673.931792
40.738560,2516.700203,-1776.494261,-79367.493593
40.741116,4145.153275,-2220.617826,-77528.864398
40.743671,1184.329507,888.247130,-79827.150892
40.746227,-1628.453072,-1184.329507,-77375.645298
40.748782,-12139.377449,1480.411884,-76303.111601
40.751338,-8734.430116,-740.205942,-80593.246390
40.753894,3256.906145,-1776.494261,-77682.083497
40.756449,7698.141797,-740.205942,-77835.302597
40.759005,-7550.100608,-1776.494261,-80286.808190
40.761561,-7846.182985,1924.535449,-75996.673402
40.764116,-8438.347739,-1184.329507,-79980.369991
40.766672,-7550.100608,-444.123565,-78141.740796
40.769228,2220.617826,444.123565,-75537.016103
40.771783,-148.041188,-1776.494261,-80593.246390
40.774339,0.000000,296.082377,-76456.330700
40.776895,-8586.388927,-2220.617826,-77375.645298
40.779450,-8438.347739,-592.164754,-78294.959896
40.782006,-9622.677246,1332.370696,-78448.178995
40.784562,5329.482782,1036.288319,-77222.426198
40.787117,14952.160028,-6069.688724,-78448.178995
40.789673,11103.089130,296.082377,-77222.426198
40.792228,7550.100608,592.164754,-77682.083497
40.794788,-7254.018232,592.164754,-77528.864398
40.797348,1480.411884,-1332.370696,-77988.521696
40.799907,8882.471304,-1036.288319,-78448.178995
40.802467,18061.024985,-444.123565,-77682.083497
40.805026,444.123565,444.123565,-79367.493593
40.807586,2812.782580,-740.205942,-77375.645298
40.810146,888.247130,-1924.535449,-77988.521696
40.812705,0.000000,296.082377,-76149.892501
40.815265,9474.636058,-888.247130,-77069.207099
40.817824,3701.029710,-592.164754,-79367.493593
40.820384,9326.594869,740.205942,-74158.044206
40.822943,6809.894666,-1184.329507,-78601.398095
40.825503,6809.894666,-444.123565,-79520.712692
40.828063,6365.771101,1776.494261,-77528.864398
40.830622,7846.182985,-2072.576638,-79367.493593
40.833182,1924.535449,-1924.535449,-79673.931792
40.835741,11843.295072,-148.041188,-78141.740796
40.838301,7105.977043,-1628.453072,-80286.808190
40.840860,5773.606348,2960.823768,-75843.454302
40.843420,-740.205942,-2664.741391,-79827.150892
40.845980,-6809.894666,-1480.411884,-78601.398095
40.848539,3552.988522,1332.370696,-75230.577904
40.851099,3849.070898,-1776.494261,-78448.178995
40.853658,-8290.306550,-740.205942,-78601.398095
40.856218,-13323.706956,1184.329507,-76303.111601
40.858778,-8586.388927,-1184.329507,-78141.740796
40.861337,-8586.388927,2072.576638,-75690.235202
40.863897,6069.688724,-2220.617826,-77988.521696
40.866456,4885.359217,-3404.947333,-79061.055394
40.869016,-7550.100608,0.000000,-76456.330700
40.871575,-10362.883188,1776.494261,-75843.454302
40.874135,-8438.347739,-888.247130,-79673.931792
40.876695,-3256.906145,-592.164754,-76149.892501
40.879254,6365.771101,-148.041188,-78754.617194
40.881814,-3997.112087,-1628.453072,-78294.959896
40.884373,-2516.700203,888.247130,-76762.768900
40.886933,-15692.365970,-888.247130,-78294.959896
40.889493,-7105.977043,-296.082377,-76456.330700
40.892052,2072.576638,1332.370696,-77069.207099
40.894612,5477.523971,-2960.823768,-80593.246390
40.897174,444.123565,-444.123565,-75843.454302
40.899737,-13915.871710,296.082377,-80286.808190
40.902300,-6217.729913,-1776.494261,-77682.083497
40.904862,-9178.553681,2368.659014,-77069.207099
40.907425,1332.370696,148.041188,-79673.931792
40.909988,13323.706956,-5625.565159,-78141.740796
40.912550,13619.789333,-444.123565,-76456.330700
40.915113,4441.235652,1776.494261,-78294.959896
40.917676,-3997.112087,-3256.906145,-77375.645298
40.920238,-444.123565,1036.288319,-77835.302597
40.922801,14804.118840,-888.247130,-78601.398095
40.925364,16728.654289,-1776.494261,-78907.836294
40.927926,148.041188,148.041188,-78141.740796
40.930489,6069.688724,444.123565,-77835.302597
40.933052,0.000000,-3997.112087,-78907.836294
40.935614,1332.370696,1332.370696,-75230.577904
40.938177,10066.800811,2812.782580,-77835.302597
40.940740,7994.224174,-4441.235652,-80746.465489
40.943302,4441.235652,0.000000,-75230.577904
40.945865,8290.306550,-1332.370696,-80133.589091
40.948428,5773.606348,-444.123565,-79367.493593
40.950990,592.164754,1776.494261,-76762.768900
40.953553,5773.606348,-1036.288319,-79980.369991
40.956116,14952.160028,-3552.988522,-78294.959896
40.958678,5329.482782,-148.041188,-78294.959896
40.961241,6217.729913,444.123565,-76915.987999
40.963804,-2960.823768,1776.494261,-78907.836294
40.966366,-1184.329507,-1776.494261,-78907.836294
40.968929,2664.741391,-1924.535449,-76609.549800
40.971492,-148.041188,1036.288319,-78294.959896
40.974054,1480.411884,-1924.535449,-78294.959896
40.976617,-10658.965565,-3701.029710,-77835.302597
40.979180,-21021.848753,1776.494261,-76915.987999
40.981742,-5773.606348,2960.823768,-76149.892501
40.984305,13175.665768,-3404.947333,-78754.617194
40.986868,-1036.288319,-2812.782580,-79367.493593
40.989430,-2516.700203,1332.370696,-74770.920605
40.991993,-7994.224174,1332.370696,-79061.055394
40.994556,-9474.636058,-2812.782580,-75996.673402
40.997118,-3849.070898,1332.370696,-75996.673402
40.999644,2072.576638,1628.453072,-80746.465489
41.002169,1184.329507,-3552.988522,-77528.864398
41.004694,-4885.359217,444.123565,-75843.454302
41.007219,-13767.830521,148.041188,-80899.684589
41.009744,-5921.647536,444.123565,-77835.302597
41.012269,740.205942,-1628.453072,-79673.931792
41.014794,592.164754,-1628.453072,-78141.740796
41.017319,444.123565,-148.041188,-75843.454302
41.019844,-10214.842000,-296.082377,-81052.903688
41.022370,-7105.977043,-2812.782580,-76456.330700
41.024895,-14804.118840,3404.947333,-78754.617194
41.027420,5181.441594,-296.082377,-79520.712692
41.029945,17320.819043,-5181.441594,-76915.987999
41.032470,9178.553681,0.000000,-77069.207099
41.034995,6513.812290,2220.617826,-77988.521696
41.037520,-4145.153275,-3256.906145,-78754.617194
41.040045,296.082377,0.000000,-76762.768900
41.042570,11991.336260,-1628.453072,-77835.302597
41.045096,6957.935855,1184.329507,-78601.398095
41.047621,11843.295072,-592.164754,-77375.645298
41.050146,5181.441594,-1332.370696,-76915.987999
41.052671,-1036.288319,-1184.329507,-78141.740796
41.055196,-2664.741391,1036.288319,-74311.263306
41.057721,4293.194464,-296.082377,-78601.398095
41.060246,13175.665768,-740.205942,-77222.426198
41.062771,3849.070898,-2516.700203,-77988.521696
41.065296,-148.041188,1628.453072,-76915.987999
41.067822,7698.141797,148.041188,-79367.493593
41.070347,8734.430116,740.205942,-76149.892501
41.072872,3849.070898,-888.247130,-77069.207099
41.075397,2812.782580,-740.205942,-76303.111601
41.077922,10807.006753,148.041188,-78294.959896
41.080447,12435.459826,-2664.741391,-77835.302597
41.082972,-2368.659014,444.123565,-75383.797003
41.085497,-5033.400406,888.247130,-79673.931792
41.088022,5477.523971,-2368.659014,-77988.521696
41.090547,2664.741391,444.123565,-78141.740796
41.093073,-6661.853478,-1184.329507,-78907.836294
41.095598,-9622.677246,-740.205942,-76609.549800
41.098123,-11251.130318,0.000000,-77528.864398
41.100658,-7105.977043,-444.123565,-76303.111601
41.103192,2516.700203,1184.329507,-75077.358804
41.105727,7402.059420,-2812.782580,-80746.465489
41.108262,-2220.617826,-148.041188,-75537.016103
41.110797,-14359.995275,1776.494261,-77682.083497
41.113331,-4885.359217,888.247130,-77069.207099
41.115866,3108.864956,-3849.070898,-78294.959896
41.118401,3701.029710,-1776.494261,-77835.302597
41.120936,-12879.583391,-888.247130,-77222.426198
41.123471,-6217.729913,1480.411884,-78601.398095
41.126005,-1924.535449,-1332.370696,-79214.274493
41.128540,-8586.388927,-1036.288319,-74924.139704
41.131075,-5625.565159,1776.494261,-79214.274493
41.133610,4293.194464,-296.082377,-80286.808190
41.136145,740.205942,-2368.659014,-75383.797003
41.138679,-15396.283594,2516.700203,-76303.111601
41.141214,-13027.624579,2368.659014,-78907.836294
41.143749,-4441.235652,-1036.288319,-78601.398095
41.146284,7994.224174,592.164754,-75843.454302
41.148818,14211.954086,-3849.070898,-76915.987999
41.151353,12287.418637,2368.659014,-76149.892501
41.153888,1332.370696,1332.370696,-78754.617194
41.156423,-4145.153275,-1776.494261,-75537.016103
41.158958,296.082377,-2516.700203,-79980.369991
41.161492,10214.842000,3256.906145,-77835.302597
41.164027,19097.313304,-1332.370696,-77528.864398
41.166562,4293.194464,-1332.370696,-78141.740796
41.169097,-4441.235652,-1036.288319,-79061.055394
41.171631,9622.677246,1776.494261,-77222.426198
41.174166,6661.853478,-3997.112087,-79980.369991
41.176701,888.247130,592.164754,-77069.207099
41.179236,13027.624579,148.041188,-79061.055394
41.181778,9178.553681,-5329.482782,-80593.246390
41.184321,7254.018232,-444.123565,-78448.178995
41.186863,3849.070898,1036.288319,-76609.549800
41.189406,4737.318029,-592.164754,-80286.808190
41.191949,7846.182985,-2368.659014,-77682.083497
41.194491,13471.748144,-2220.617826,-78601.398095
41.197034,4293.194464,0.000000,-77988.521696
41.199576,888.247130,1184.329507,-77682.083497
41.202119,2516.700203,-2812.782580,-77988.521696
41.204661,-888.247130,-1628.453072,-77222.426198
41.207204,-2072.576638,296.082377,-77528.864398
41.209746,-1184.329507,-148.041188,-78754.617194
41.212289,-7698.141797,-4293.194464,-79367.493593
41.214832,-16432.571912,2220.617826,-75843.454302
41.217374,-5773.606348,3552.988522,-78294.959896
41.219917,5773.606348,-5033.400406,-78448.178995
41.222459,592.164754,-2664.741391,-77682.083497
41.225002,592.164754,1776.494261,-78294.959896
41.227544,-7846.182985,-2664.741391,-78601.398095
41.230087,-9178.553681,-1480.411884,-77069.207099
41.232629,-296.082377,1036.288319,-77222.426198
41.235172,-5921.647536,-1480.411884,-80440.027290
41.237714,1628.453072,148.041188,-75383.797003
41.240257,-1924.535449,-2220.617826,-78294.959896
41.242800,-12435.459826,0.000000,-77222.426198
41.245342,-13175.665768,1924.535449,-76456.330700
41.247885,3997.112087,-2516.700203,-80286.808190
41.250427,1036.288319,-740.205942,-78141.740796
41.252970,-6661.853478,-888.247130,-75690.235202
41.255512,-9474.636058,2072.576638,-78448.178995
41.258055,-11695.253884,-1628.453072,-80746.465489
41.260597,-5181.441594,2072.576638,-74770.920605
41.263140,9918.759623,-1036.288319,-79367.493593
41.265683,14211.954086,-3701.029710,-78294.959896
41.268225,13027.624579,1332.370696,-75690.235202
41.270768,-3404.947333,3997.112087,-78601.398095
41.273310,1628.453072,-3849.070898,-78907.836294
41.275853,3256.906145,-2220.617826,-77069.207099
41.278395,9178.553681,4145.153275,-77988.521696
41.280938,22206.178260,-1036.288319,-77222.426198
41.283487,1184.329507,-4737.318029,-80286.808190
41.286035,-1332.370696,592.164754,-75690.235202
41.288584,8142.265362,148.041188,-79827.150892
41.291133,4589.276840,-1628.453072,-78141.740796
41.293682,2516.700203,2664.741391,-76609.549800
41.296231,4737.318029,1332.370696,-77682.083497
41.298779,15248.242405,-3108.864956,-80899.684589
41.301328,4737.318029,-2220.617826,-77069.207099
41.303877,0.000000,3849.070898,-75843.454302
41.306426,10214.842000,-1332.370696,-79367.493593
41.308974,5477.523971,-5625.565159,-77528.864398
41.311523,6661.853478,2516.700203,-75843.454302
41.314072,10510.924376,-1480.411884,-81206.122788
41.316621,2220.617826,-1924.535449,-77375.645298
41.319170,-8142.265362,2072.576638,-77835.302597
41.321718,4441.235652,1480.411884,-76456.330700
41.324267,-296.082377,-2220.617826,-80133.589091
41.326816,-5625.565159,-444.123565,-77375.645298
41.329365,-10362.883188,-1776.494261,-77988.521696
41.331913,-11991.336260,-592.164754,-77375.645298
41.334462,-5181.441594,1332.370696,-77528.864398
41.337011,8882.471304,0.000000,-76762.768900
41.339560,2812.782580,-3108.864956,-79061.055394
41.342109,-7846.182985,-3404.947333,-79980.369991
41.344657,-12731.542202,2220.617826,-74924.139704
41.347206,-7994.224174,-888.247130,-81359.341888
41.349755,9326.594869,-592.164754,-76149.892501
41.352304,-3108.864956,-1628.453072,-79214.274493
41.354852,-8882.471304,2516.700203,-75843.454302
41.357401,-7846.182985,-2368.659014,-80286.808190
41.359950,-5329.482782,-444.123565,-76915.987999
41.362499,-5773.606348,-444.123565,-77988.521696
41.365048,-7402.059420,296.082377,-78294.959896
41.367596,0.000000,0.000000,-77682.083497
41.370145,-3256.906145,-1036.288319,-76303.111601
41.372694,-15100.201217,-1036.288319,-78141.740796
41.375243,-8290.306550,2072.576638,-76762.768900
41.377791,11547.212695,-1036.288319,-79520.712692
41.380340,15988.448347,-4737.318029,-76762.768900
41.382889,10807.006753,2812.782580,-76149.892501
41.385442,-5773.606348,-148.041188,-81206.122788
41.387996,-1332.370696,-3552.988522,-76149.892501
41.390550,3701.029710,-1332.370696,-78907.836294
41.393104,11843.295072,3404.947333,-77069.207099
41.395658,18949.272115,-296.082377,-77069.207099
41.398213,-1036.288319,-2368.659014,-78907.836294
41.400767,148.041188,-1036.288319,-75843.454302
41.403321,3997.112087,-592.164754,-78907.836294
41.405875,148.041188,-444.123565,-77528.864398
41.408429,-1184.329507,2516.700203,-76915.987999
41.410984,11251.130318,-296.082377,-78141.740796
41.413538,10955.047942,-4589.276840,-79673.931792
41.416092,-1036.288319,-1480.411884,-76609.549800
41.418646,3849.070898,3701.029710,-75996.673402
41.421200,13323.706956,-1036.288319,-79827.150892
41.423755,7994.224174,-3108.864956,-75690.235202
41.426309,1776.494261,1776.494261,-77528.864398
41.428863,11991.336260,-1776.494261,-78754.617194
41.431417,4589.276840,-4293.194464,-77682.083497
41.433971,-296.082377,592.164754,-76456.330700
41.436526,-2812.782580,3256.906145,-77375.645298
41.439080,7105.977043,-4145.153275,-78907.836294
41.441634,-10955.047942,-3256.906145,-78601.398095
41.444188,-13915.871710,2072.576638,-75996.673402
41.446742,-8586.388927,-1184.329507,-79673.931792
41.449297,-1924.535449,1924.535449,-75996.673402
41.451851,6365.771101,-2220.617826,-77988.521696
41.454405,2220.617826,-148.041188,-78141.740796
41.456959,-9178.553681,-1776.494261,-78141.740796
41.459513,-14211.954086,296.082377,-77528.864398
41.462067,-7846.182985,888.247130,-79214.274493
41.464622,7402.059420,-2368.659014,-77375.645298
41.467176,-4737.318029,-444.123565,-78294.959896
41.469730,-5773.606348,3404.947333,-77222.426198
41.472284,-4293.194464,-1628.453072,-78294.959896
41.474838,-11103.089130,-1628.453072,-77988.521696
41.477393,2516.700203,740.205942,-77222.426198
41.479947,4293.194464,-1480.411884,-78294.959896
41.482501,-9474.636058,-444.123565,-77375.645298
41.485055,-7550.100608,296.082377,-75843.454302
41.487577,-8438.347739,-2072.576638,-80133.589091
41.490098,-6217.729913,1924.535449,-76915.987999
41.492619,14508.036463,-1036.288319,-77988.521696
41.495140,13619.789333,-3552.988522,-79980.369991
41.497662,13175.665768,2072.576638,-75690.235202
41.500183,-9326.594869,0.000000,-78601.398095
41.502704,2664.741391,-3849.070898,-78294.959896
41.505226,8438.347739,-2812.782580,-76303.111601
41.507747,10658.965565,3701.029710,-77375.645298
41.510268,16432.571912,-444.123565,-78448.178995
41.512790,5181.441594,-2960.823768,-77988.521696
41.515311,-5181.441594,-1036.288319,-77835.302597
41.517832,2960.823768,1924.535449,-76609.549800
41.520353,17468.860231,-1332.370696,-78448.178995
41.522875,6365.771101,-1628.453072,-80440.027290
41.525396,1776.494261,1184.329507,-75690.235202
41.527917,12879.583391,-2516.700203,-79673.931792
41.530439,6365.771101,-3701.029710,-81512.560987
41.532960,-3404.947333,3701.029710,-74617.701505
41.535481,14063.912898,1628.453072,-79520.712692
41.538003,14211.954086,-6661.853478,-80899.684589
41.540524,3404.947333,1628.453072,-75537.016103
41.543045,-9770.718434,-148.041188,-77069.207099
41.545567,-1628.453072,1628.453072,-78141.740796
41.548088,7994.224174,-1480.411884,-77375.645298
41.550609,-592.164754,3701.029710,-77069.207099
41.553130,-4589.276840,-2072.576638,-79673.931792
41.555652,-12287.418637,-4737.318029,-78907.836294
41.558173,-16136.489536,1628.453072,-77682.083497
41.560694,-6217.729913,3701.029710,-76303.111601
41.563216,6513.812290,-4293.194464,-81052.903688
41.565737,6513.812290,-296.082377,-78141.740796
41.568258,-7402.059420,148.041188,-75383.797003
41.570780,-13471.748144,1184.329507,-76303.111601
41.573301,-8586.388927,-2516.700203,-80593.246390
41.575822,1924.535449,-740.205942,-75996.673402
41.578343,-1776.494261,-888.247130,-78601.398095
41.580865,1776.494261,296.082377,-77069.207099
41.583386,-9178.553681,-2220.617826,-79980.369991
41.585907,-8142.265362,2072.576638,-75843.454302
41.588440,-888.247130,-1924.535449,-77682.083497
41.590972,1480.411884,-888.247130,-80133.589091
41.593505,-3552.988522,0.000000,-77069.207099
41.596037,-6809.894666,1480.411884,-76456.330700
41.598570,-13767.830521,-2220.617826,-79980.369991
41.601102,-7994.224174,1184.329507,-75537.016103
41.603635,7402.059420,-1036.288319,-79214.274493
41.606167,15840.407159,-4441.235652,-77222.426198
41.608699,12731.542202,4589.276840,-74464.482406
41.611232,-5625.565159,296.082377,-79367.493593
41.613764,-1924.535449,-5181.441594,-76149.892501
41.616297,2664.741391,-1480.411884,-79367.493593
41.618829,13027.624579,3701.029710,-77988.521696
41.621362,23242.466579,-888.247130,-76456.330700
41.623894,0.000000,-1776.494261,-78448.178995
41.626427,-3404.947333,-1480.411884,-77835.302597
41.628959,2664.741391,444.123565,-77528.864398
41.631492,15692.365970,-1924.535449,-78907.836294
41.634024,7846.182985,-148.041188,-78601.398095
41.636556,2220.617826,2516.700203,-78141.740796
41.639089,11547.212695,-2960.823768,-79827.150892
41.641621,6661.853478,-4885.359217,-79214.274493
41.644154,-3404.947333,4441.235652,-75230.577904
41.646686,9770.718434,1036.288319,-80593.246390
41.649219,17912.983796,-3404.947333,-78141.740796
41.651751,3701.029710,-1924.535449,-76303.111601
41.654284,-1036.288319,-148.041188,-74924.139704
41.656816,-9030.512492,740.205942,-79980.369991
41.659348,10066.800811,-592.164754,-75230.577904
41.661881,-888.247130,296.082377,-78448.178995
41.664413,-5921.647536,1924.535449,-76915.987999
41.666946,-10066.800811,-5477.523971,-79980.369991
41.669478,-14508.036463,-296.082377,-75537.016103
41.672011,-10214.842000,5625.565159,-77682.083497
41.674543,14508.036463,-1628.453072,-79827.150892
41.677076,9770.718434,-4737.318029,-79061.055394
41.679608,-9918.759623,1776.494261,-75537.016103
41.682141,-14211.954086,2368.659014,-77682.083497
41.684673,-3256.906145,-4737.318029,-80286.808190
41.687205,2516.700203,-592.164754,-75537.016103
41.689747,-8586.388927,148.041188,-79367.493593
41.692289,1924.535449,1184.329507,-76915.987999
41.694831,-7698.141797,-1036.288319,-78754.617194
41.697373,-8142.265362,-2664.741391,-78754.617194
41.699915,-6365.771101,0.000000,-74311.263306
41.702457,3997.112087,-1332.370696,-79673.931792
41.704999,-3108.864956,-1924.535449,-76762.768900
41.707541,-13175.665768,1332.370696,-74464.482406
41.710083,-10807.006753,1184.329507,-80133.589091
41.712625,1628.453072,-1776.494261,-78141.740796
41.715167,15544.324782,-4737.318029,-75843.454302
41.717709,12583.501014,444.123565,-78907.836294
41.720251,10214.842000,2812.782580,-77988.521696
41.722793,-7402.059420,-4145.153275,-78141.740796
41.725335,2812.782580,-1924.535449,-78448.178995
41.727877,11103.089130,-2220.617826,-78601.398095
41.730419,14211.954086,2516.700203,-78754.617194
41.732961,11843.295072,0.000000,-77682.083497
41.735503,3701.029710,-4441.235652,-78448.178995
41.738045,-5329.482782,1036.288319,-79367.493593
41.740587,-1332.370696,1332.370696,-78754.617194
41.743129,4441.235652,-888.247130,-78448.178995
41.745671,18061.024985,1480.411884,-76149.892501
41.748213,13323.706956,-3256.906145,-79061.055394
41.750755,592.164754,-3849.070898,-78448.178995
41.753297,148.041188,3256.906145,-75077.358804
41.755839,15396.283594,-296.082377,-79214.274493
41.758381,9770.718434,-3404.947333,-75843.454302
41.760923,8142.265362,2516.700203,-76303.111601
41.763465,-296.082377,-3404.947333,-81972.218286
41.766007,-2664.741391,-1332.370696,-77988.521696
41.768549,1332.370696,2072.576638,-76915.987999
41.771091,6513.812290,3108.864956,-78754.617194
41.773633,-4293.194464,-3701.029710,-79827.150892
41.776175,-17764.942608,-2368.659014,-76609.549800
41.778717,-13323.706956,148.041188,-78294.959896
41.781259,-6365.771101,3108.864956,-75843.454302
41.783801,4293.194464,-2368.659014,-77988.521696
41.786343,5477.523971,-2664.741391,-77069.207099
41.788885,-6217.729913,296.082377,-76915.987999
41.791434,-14063.912898,1184.329507,-78448.178995
41.793983,-8142.265362,-2220.617826,-78448.178995
41.796532,888.247130,-740.205942,-76149.892501
41.799081,-3849.070898,-296.082377,-77988.521696
41.801630,2072.576638,1184.329507,-75996.673402
41.804180,-5625.565159,-1184.329507,-79520.712692
41.806729,-11251.130318,-148.041188,-77069.207099
41.809278,-9326.594869,2220.617826,-78294.959896
41.811827,1332.370696,-148.041188,-79827.150892
41.814376,1184.329507,-1332.370696,-77682.083497
41.816925,-13767.830521,444.123565,-75996.673402
41.819474,-10955.047942,3404.947333,-77835.302597
41.822023,5921.647536,-4293.194464,-79980.369991
41.824572,13619.789333,-5181.441594,-76149.892501
41.827121,11103.089130,3552.988522,-77682.083497
41.829670,10510.924376,1332.370696,-79673.931792
41.832219,-4737.318029,-3997.112087,-76762.768900
41.834768,-444.123565,-740.205942,-79520.712692
41.837317,10955.047942,0.000000,-79214.274493
41.839866,18061.024985,-1480.411884,-76456.330700
41.842415,3701.029710,2516.700203,-77528.864398
41.844964,4737.318029,-3701.029710,-78141.740796
41.847513,3701.029710,-1628.453072,-76762.768900
41.850062,-2960.823768,740.205942,-76456.330700
41.852611,1036.288319,592.164754,-77682.083497
41.855160,10066.800811,3404.947333,-78294.959896
41.857709,23094.425390,-5477.523971,-78754.617194
41.860258,-3108.864956,-3108.864956,-79980.369991
41.862807,-592.164754,4589.276840,-74617.701505
41.865356,20281.642811,-1036.288319,-80440.027290
41.867905,3997.112087,-3256.906145,-75996.673402
41.870454,2664.741391,4145.153275,-75230.577904
41.873003,6809.894666,-6661.853478,-81818.999186
41.875552,-5033.400406,-1776.494261,-74004.825107
41.878101,-10214.842000,2368.659014,-73698.386908
41.880650,7105.977043,4293.194464,-77375.645298
41.883199,-1480.411884,-8586.388927,-80746.465489
41.885748,-19097.313304,-1184.329507,-74158.044206
41.888297,-12139.377449,2072.576638,-79061.055394
41.890846,-740.205942,1924.535449,-78448.178995
41.893401,3701.029710,-3997.112087,-76915.987999
41.895956,5033.400406,-592.164754,-78601.398095
41.898511,-5921.647536,-3108.864956,-80133.589091
41.901065,-10066.800811,592.164754,-76149.892501
41.903620,-6661.853478,-1480.411884,-77222.426198
41.906175,296.082377,-444.123565,-77069.207099
41.908730,2368.659014,148.041188,-79061.055394
41.911285,-7254.018232,-740.205942,-77528.864398
41.913840,-7105.977043,3849.070898,-75383.797003
41.916395,1480.411884,-2516.700203,-79673.931792
41.918950,-8438.347739,-2664.741391,-76456.330700
41.921505,-5625.565159,1776.494261,-77069.207099
41.924060,-3404.947333,2664.741391,-78754.617194
41.926614,-6513.812290,-2368.659014,-79520.712692
41.929169,-10955.047942,3256.906145,-74770.920605
41.931724,12435.459826,-3552.988522,-80440.027290
41.934279,12731.542202,-3849.070898,-79827.150892
41.936834,17172.777854,1924.535449,-73238.729609
41.939389,-7698.141797,3552.988522,-80593.246390
41.941944,4145.153275,-4293.194464,-76762.768900
41.944499,-2516.700203,-2072.576638,-77222.426198
41.947054,10214.842000,1924.535449,-77835.302597
41.949608,19985.560434,1184.329507,-76303.111601
41.952163,5033.400406,-4293.194464,-81206.122788
41.954718,-4441.235652,1184.329507,-75843.454302
41.957273,-2368.659014,-1480.411884,-79520.712692
41.959828,8290.306550,-1776.494261,-76915.987999
41.962383,13915.871710,444.123565,-75690.235202
41.964938,-296.082377,-296.082377,-78294.959896
41.967493,444.123565,-148.041188,-76762.768900
41.970048,14211.954086,-1924.535449,-77069.207099
41.972602,2220.617826,-1036.288319,-79061.055394
41.975157,6661.853478,4293.194464,-74311.263306
41.977712,14508.036463,-1332.370696,-81818.999186
41.980267,2220.617826,-5625.565159,-79520.712692
41.982822,-5773.606348,3701.029710,-74770.920605
41.985377,7994.224174,-1332.370696,-80133.589091
41.987932,-2220.617826,1480.411884,-77069.207099
41.990487,-6957.935855,-3404.947333,-78448.178995
41.993042,-11695.253884,-888.247130,-77069.207099
41.995601,-11251.130318,-2368.659014,-80593.246390
41.998159,-6217.729913,3701.029710,-76149.892501
42.000718,3108.864956,-2516.700203,-79980.369991
42.003277,3849.070898,-2220.617826,-79980.369991
42.005836,-4145.153275,-1332.370696,-79214.274493
42.008395,-9770.718434,2516.700203,-76915.987999
42.010954,-9918.759623,-2368.659014,-80899.684589
42.013513,740.205942,-1628.453072,-77835.302597
42.016072,-444.123565,740.205942,-78754.617194
42.018631,-2220.617826,-1480.411884,-76609.549800
42.021190,-4293.194464,-740.205942,-77682.083497
42.023749,-7254.018232,0.000000,-78294.959896
42.026308,-7105.977043,0.000000,-76762.768900
42.028867,-3256.906145,-2960.823768,-80593.246390
42.031426,-888.247130,-888.247130,-76915.987999
42.033984,-11695.253884,592.164754,-77069.207099
42.036543,-7402.059420,296.082377,-80286.808190
42.039102,12879.583391,-2368.659014,-77222.426198
42.041661,8586.388927,-4145.153275,-79214.274493
42.044220,14804.118840,3404.947333,-75230.577904
42.046779,1776.494261,-148.041188,-80440.027290
42.049338,-3256.906145,-4145.153275,-76303.111601
42.051897,0.000000,148.041188,-78448.178995
42.054456,14359.995275,888.247130,-78448.178995
42.057015,17024.736666,-2960.823768,-78448.178995
42.059574,3552.988522,592.164754,-75537.016103
42.062133,1628.453072,-1184.329507,-77528.864398
42.064692,4293.194464,-1480.411884,-78141.740796
42.067250,-740.205942,-148.041188,-78141.740796
42.069809,10955.047942,3404.947333,-76456.330700
42.072368,13027.624579,-3849.070898,-79827.150892
42.074927,740.205942,-2072.576638,-76609.549800
42.077486,9918.759623,1332.370696,-77528.864398
42.080045,10066.800811,-1332.370696,-79673.931792
42.082604,6365.771101,0.000000,-76915.987999
42.085163,5033.400406,1480.411884,-77835.302597
42.087722,7254.018232,-5921.647536,-81052.903688
42.090281,-5033.400406,-592.164754,-77375.645298
42.092840,-3552.988522,2072.576638,-77222.426198
42.095399,5477.523971,3552.988522,-77988.521696
42.097962,-5033.400406,-5921.647536,-79673.931792
42.100524,-15544.324782,296.082377,-75996.673402
42.103087,-13767.830521,2664.741391,-79214.274493
42.105650,2368.659014,1036.288319,-77835.302597
42.108213,6661.853478,-4589.276840,-78448.178995
42.110776,-1924.535449,2220.617826,-77069.207099
42.113339,-5181.441594,-888.247130,-79520.712692
42.115901,-6217.729913,-444.123565,-76303.111601
42.118464,-7698.141797,-1776.494261,-77682.083497
42.121027,-6069.688724,0.000000,-77682.083497
42.123590,3849.070898,-1036.288319,-79520.712692
42.126153,-3849.070898,-3552.988522,-79980.369991
42.128716,-5181.441594,1184.329507,-76915.987999
42.131279,-8734.430116,0.000000,-79980.369991
42.133841,-2664.741391,-2368.659014,-78448.178995
42.136404,-1480.411884,-1924.535449,-77682.083497
42.138967,-13471.748144,148.041188,-78754.617194
42.141530,-7550.100608,3108.864956,-77069.207099
42.144093,444.123565,-888.247130,-79214.274493
42.146656,18357.107362,-6513.812290,-78907.836294
42.149218,8734.430116,2812.782580,-76456.330700
42.151781,7698.141797,2812.782580,-78448.178995
42.154344,888.247130,-2664.741391,-76149.892501
42.156907,3108.864956,-2812.782580,-79367.493593
42.159470,6365.771101,-444.123565,-77682.083497
42.162033,13471.748144,592.164754,-78601.398095
42.164596,11103.089130,1184.329507,-77988.521696
42.167158,1924.535449,-4589.276840,-80133.589091
42.169721,-3404.947333,-148.041188,-77988.521696
42.172284,-1480.411884,592.164754,-78448.178995
42.174847,12879.583391,1480.411884,-77375.645298
42.177410,12139.377449,-2960.823768,-79061.055394
42.179973,5181.441594,-740.205942,-75690.235202
42.182536,8438.347739,-1184.329507,-79673.931792
42.185098,4885.359217,-2220.617826,-77988.521696
42.187661,9326.594869,4145.153275,-75383.797003
42.190224,8438.347739,-1628.453072,-79520.712692
42.192787,1480.411884,-3849.070898,-77835.302597
42.195350,-4441.235652,-592.164754,-78141.740796
42.197913,-740.205942,1480.411884,-77222.426198
42.200443,4589.276840,2368.659014,-78448.178995
42.202974,-6513.812290,-4145.153275,-78907.836294
42.205505,-15396.283594,0.000000,-75537.016103
42.208036,-10658.965565,-1036.288319,-80746.465489
42.210566,-2664.741391,1776.494261,-76303.111601
42.213097,3701.029710,0.000000,-78601.398095
42.215628,1184.329507,-3108.864956,-80286.808190
42.218159,-148.041188,148.041188,-77375.645298
42.220689,-7994.224174,-148.041188,-78141.740796
42.223220,-5773.606348,-740.205942,-79367.493593
42.225751,-4737.318029,-1628.453072,-78601.398095
42.228282,1628.453072,0.000000,-79673.931792
42.230813,-5181.441594,-2220.617826,-79214.274493
42.233343,-2812.782580,0.000000,-75690.235202
42.235874,-10807.006753,592.164754,-82125.437386
42.238405,-2368.659014,-592.164754,-76456.330700
42.240936,1036.288319,-2960.823768,-77835.302597
42.243466,-12731.542202,-740.205942,-79980.369991
42.245997,-9030.512492,2664.741391,-75843.454302
42.248528,1184.329507,1480.411884,-79980.369991
42.251059,18653.189738,-7550.100608,-78448.178995
42.253589,6513.812290,3552.988522,-76456.330700
42.256120,9622.677246,740.205942,-79827.150892
42.258651,-1332.370696,-2220.617826,-75537.016103
42.261182,2368.659014,-2516.700203,-78907.836294
42.263712,6809.894666,888.247130,-77222.426198
42.266243,13471.748144,-296.082377,-77988.521696
42.268774,11103.089130,0.000000,-76762.768900
42.271305,2220.617826,-3849.070898,-78448.178995
42.273836,888.247130,-592.164754,-76456.330700
42.276366,-3997.112087,-1924.535449,-79061.055394
42.278897,13175.665768,1924.535449,-75996.673402
42.281428,10807.006753,-1776.494261,-79520.712692
42.283959,5181.441594,-3701.029710,-78141.740796
42.286489,3256.906145,1332.370696,-77988.521696
42.289020,12435.459826,-1036.288319,-79367.493593
42.291551,4885.359217,-1332.370696,-76456.330700
42.294082,5033.400406,3849.070898,-76303.111601
42.296612,4145.153275,-6069.688724,-82431.875585
42.299143,1184.329507,-296.082377,-75843.454302
42.301683,-3404.947333,1628.453072,-77682.083497
42.304224,5033.400406,3108.864956,-78294.959896
42.306764,-6069.688724,-4441.235652,-81818.999186
42.309304,-15692.365970,-1332.370696,-74617.701505
42.311845,-15100.201217,1332.370696,-77528.864398
42.314385,740.205942,740.205942,-77528.864398
42.316925,7550.100608,-4737.318029,-77222.426198
42.319466,-2516.700203,148.041188,-78448.178995
42.322006,-592.164754,1332.370696,-77988.521696
42.324546,-11251.130318,-1480.411884,-78601.398095
42.327086,-13915.871710,-296.082377,-79061.055394
42.329627,5921.647536,4293.194464,-75843.454302
42.332167,4145.153275,-3701.029710,-83044.751983
42.334707,-15100.201217,-740.205942,-74770.920605
42.337248,-8290.306550,5329.482782,-76149.892501
42.339788,5181.441594,-3997.112087,-81972.218286
42.342328,-12139.377449,-2960.823768,-74004.825107
42.344869,-9474.636058,5625.565159,-77222.426198
42.347409,-740.205942,-6069.688724,-82585.094684
42.349949,-5921.647536,-4737.318029,-78448.178995
42.352489,-4145.153275,1036.288319,-74924.139704
42.355030,12287.418637,-148.041188,-78294.959896
42.357570,24722.878463,-2072.576638,-76915.987999
42.360110,-5477.523971,888.247130,-77835.302597
42.362651,-4589.276840,888.247130,-74004.825107
42.365191,7698.141797,-3404.947333,-83044.751983
42.367731,13175.665768,444.123565,-75383.797003
42.370272,9178.553681,2072.576638,-76609.549800
42.372812,-1628.453072,2220.617826,-77682.083497
42.375352,3108.864956,-2072.576638,-81052.903688
42.377892,4293.194464,-148.041188,-75383.797003
42.380433,1924.535449,-148.041188,-78141.740796
42.382973,7550.100608,-592.164754,-79367.493593
42.385513,14211.954086,592.164754,-76149.892501
42.388054,5921.647536,-2516.700203,-78448.178995
42.390594,5181.441594,-2220.617826,-77835.302597
42.393134,10807.006753,2960.823768,-77682.083497
42.395674,12435.459826,0.000000,-79367.493593
42.398215,296.082377,-6513.812290,-77222.426198
42.400755,-1480.411884,3256.906145,-78448.178995
42.403268,11695.253884,-2960.823768,-80133.589091
42.405781,-4441.235652,2516.700203,-76609.549800
42.408295,-4737.318029,1924.535449,-78294.959896
42.410809,-10362.883188,-3997.112087,-80440.027290
42.413322,-14359.995275,-2220.617826,-77069.207099
42.415836,-11103.089130,2664.741391,-76303.111601
42.418350,888.247130,-1924.535449,-79673.931792
42.420863,5033.400406,-2664.741391,-78294.959896
42.423377,-2960.823768,-296.082377,-78448.178995
42.425891,-12583.501014,1628.453072,-76762.768900
42.428404,-9474.636058,-888.247130,-78907.836294
42.430918,1776.494261,-3108.864956,-78907.836294
42.433432,-3997.112087,-444.123565,-78754.617194
42.435945,-3997.112087,1332.370696,-76915.987999
42.438459,-1924.535449,740.205942,-81359.341888
42.440973,-3256.906145,-1480.411884,-79520.712692
42.443486,-7994.224174,592.164754,-75843.454302
42.446000,-3997.112087,1036.288319,-79367.493593
42.448514,-7846.182985,-4293.194464,-79367.493593
42.451027,-9326.594869,3256.906145,-73851.606007
42.453541,0.000000,740.205942,-79367.493593
42.456055,20873.807564,-5773.606348,-77528.864398
42.458568,5921.647536,0.000000,-76609.549800
42.461082,6069.688724,4145.153275,-76149.892501
42.463596,-4885.359217,-2072.576638,-78448.178995
42.466109,9474.636058,-2664.741391,-79520.712692
42.468623,8734.430116,740.205942,-77222.426198
42.471137,9474.636058,2072.576638,-77682.083497
42.473650,11103.089130,-1036.288319,-79214.274493
42.476164,4145.153275,-2960.823768,-77988.521696
42.478678,-4145.153275,2812.782580,-77069.207099
42.481191,4737.318029,-1628.453072,-78907.836294
42.483705,10214.842000,-1480.411884,-79367.493593
42.486219,13915.871710,1924.535449,-75843.454302
42.488732,3701.029710,-1776.494261,-77222.426198
42.491246,6069.688724,-2220.617826,-77528.864398
42.493759,8882.471304,2072.576638,-77528.864398
42.496273,5921.647536,-592.164754,-77528.864398
42.498787,1332.370696,-592.164754,-75843.454302
42.501300,1036.288319,-2960.823768,-79827.150892
42.503827,9918.759623,-740.205942,-75843.454302
42.506355,-6069.688724,2072.576638,-77222.426198
42.508882,-2812.782580,1184.329507,-77528.864398
42.511409,-11991.336260,-2220.617826,-79980.369991
42.513936,-11547.212695,-1924.535449,-77069.207099
42.516463,-4885.359217,2516.700203,-75537.016103
42.518990,0.000000,-1332.370696,-80133.589091
42.521517,6957.935855,-444.123565,-77375.645298
42.524044,0.000000,-740.205942,-77988.521696
42.526571,-12435.459826,1332.370696,-77835.302597
42.529098,-14063.912898,-296.082377,-79673.931792
42.531625,-444.123565,-888.247130,-78448.178995
42.534152,888.247130,-1480.411884,-80593.246390
42.536679,-6069.688724,-592.164754,-74617.701505
42.539206,-8438.347739,2516.700203,-77375.645298
42.541733,-2960.823768,-296.082377,-77682.083497
42.544260,-6513.812290,-2960.823768,-76456.330700
42.546787,-9770.718434,1184.329507,-77222.426198
42.549314,-6957.935855,-1184.329507,-79520.712692
42.551841,-1924.535449,-296.082377,-77528.864398
42.554368,8290.306550,-1628.453072,-76762.768900
42.556895,12139.377449,-1776.494261,-78294.959896
42.559422,15100.201217,296.082377,-77069.207099
42.561949,1184.329507,2220.617826,-78294.959896
42.564476,-3552.988522,-3701.029710,-78448.178995
42.567003,7254.018232,-148.041188,-78294.959896
42.569530,10658.965565,740.205942,-78294.959896
42.572057,13767.830521,148.041188,-77835.302597
42.574584,-148.041188,-444.123565,-78141.740796
42.577111,-2960.823768,1628.453072,-79061.055394
42.579638,14656.077652,-888.247130,-78294.959896
42.582165,3849.070898,-5477.523971,-79214.274493
42.584703,2960.823768,2812.782580,-76915.987999
42.587240,20577.725188,-592.164754,-79520.712692
42.589777,12139.377449,-5625.565159,-80440.027290
42.592315,888.247130,592.164754,-76303.111601
42.594852,6217.729913,4293.194464,-80899.684589
42.597389,5921.647536,-444.123565,-82738.313784
42.599926,6661.853478,-6661.853478,-75537.016103
42.602464,-3404.947333,740.205942,-77069.207099
42.605001,-2516.700203,0.000000,-80440.027290
42.607538,7105.977043,296.082377,-76762.768900
42.610076,-12731.542202,-3552.988522,-79673.931792
42.612613,-14508.036463,2516.700203,-75230.577904
42.615150,-10658.965565,-2072.576638,-81818.999186
42.617688,-2664.741391,592.164754,-74464.482406
42.620225,2812.782580,-1776.494261,-76303.111601
42.622762,-1036.288319,-444.123565,-79673.931792
42.625299,-6957.935855,1332.370696,-76915.987999
42.627837,-13915.871710,-1036.288319,-76915.987999
42.630374,-6809.894666,-740.205942,-77835.302597
42.632911,-888.247130,-888.247130,-77988.521696
42.635449,-8438.347739,-1036.288319,-79367.493593
42.637986,-4441.235652,148.041188,-74924.139704
42.640523,-6217.729913,-1628.453072,-78141.740796
42.643061,-12583.501014,-3256.906145,-77682.083497
42.645598,-4885.359217,2812.782580,-75843.454302
42.648135,-5625.565159,-3552.988522,-81206.122788
42.650672,-6069.688724,1924.535449,-76149.892501
42.653210,1480.411884,2072.576638,-78907.836294
42.655747,25463.084405,-6513.812290,-79061.055394
42.658284,8438.347739,444.123565,-77222.426198
42.660822,3108.864956,4145.153275,-77682.083497
42.663359,-148.041188,-2072.576638,-76456.330700
42.665896,7254.018232,-3552.988522,-80746.465489
42.668433,11695.253884,592.164754,-76762.768900
42.670971,7402.059420,1480.411884,-78448.178995
42.673508,6661.853478,296.082377,-77682.083497
42.676045,3997.112087,-5033.400406,-80133.589091
42.678583,1776.494261,1628.453072,-76149.892501
42.681120,592.164754,-888.247130,-78907.836294
42.683657,11399.171507,-888.247130,-78294.959896
42.686195,14952.160028,-148.041188,-77835.302597
42.688732,10066.800811,-2516.700203,-76456.330700
42.691269,5921.647536,-2812.782580,-77835.302597
42.693806,3701.029710,3552.988522,-77222.426198
42.696344,10362.883188,-1036.288319,-78601.398095
42.698881,4441.235652,-3256.906145,-75077.358804
42.701418,-6957.935855,-1184.329507,-79061.055394
42.703956,6513.812290,0.000000,-74924.139704
42.706503,-2664.741391,-296.082377,-78294.959896
42.709050,-7846.182985,-5477.523971,-78601.398095
42.711597,-15544.324782,1776.494261,-75843.454302
42.714144,-11399.171507,-1184.329507,-80286.808190
42.716691,-1924.535449,888.247130,-75843.454302
42.719238,888.247130,-1184.329507,-78907.836294
42.721785,-1628.453072,-1184.329507,-78907.836294
42.724332,-3404.947333,0.000000,-75537.016103
42.726879,-17320.819043,-1036.288319,-78448.178995
42.729426,-7254.018232,-1332.370696,-77069.207099
42.731973,-3256.906145,296.082377,-76609.549800
42.734520,740.205942,-2516.700203,-77528.864398
42.737067,-8438.347739,592.164754,-75077.358804
42.739614,-7550.100608,-296.082377,-79367.493593
42.742161,-6809.894666,148.041188,-75996.673402
42.744708,-1776.494261,-296.082377,-75537.016103
42.747255,-13619.789333,-2368.659014,-79061.055394
42.749802,-3997.112087,3849.070898,-74158.044206
42.752349,4885.359217,-148.041188,-79061.055394
42.754896,18949.272115,-5625.565159,-78907.836294
42.757443,10214.842000,3701.029710,-76303.111601
42.759990,3404.947333,1924.535449,-80899.684589
42.762537,-740.205942,-3404.947333,-76456.330700
42.765084,2516.700203,-2072.576638,-79980.369991
42.767631,11991.336260,0.000000,-77069.207099
42.770178,11103.089130,444.123565,-79367.493593
42.772724,9178.553681,148.041188,-77528.864398
42.775271,4589.276840,-2812.782580,-78141.740796
42.777818,-444.123565,-2368.659014,-77222.426198
42.780365,3108.864956,888.247130,-76609.549800
42.782912,10658.965565,-2516.700203,-78754.617194
42.785459,10066.800811,888.247130,-76915.987999
42.788014,9030.512492,296.082377,-77069.207099
42.790568,9474.636058,-4293.194464,-78907.836294
42.793123,2220.617826,1924.535449,-75996.673402
42.795677,8438.347739,2072.576638,-78448.178995
42.798231,5477.523971,-4441.235652,-78754.617194
42.800786,3701.029710,-148.041188,-77528.864398
42.803340,-5921.647536,592.164754,-77375.645298
42.805895,4737.318029,2664.741391,-75996.673402
42.808449,-9030.512492,-4885.359217,-79827.150892
42.811003,-14359.995275,592.164754,-74004.825107
42.813558,-14063.912898,1924.535449,-80133.589091
42.816112,2960.823768,-888.247130,-76609.549800
42.818667,3701.029710,-5033.400406,-77222.426198
42.821221,-4293.194464,-2368.659014,-78907.836294
42.823775,-13619.789333,4293.194464,-77222.426198
42.826330,-5921.647536,-3404.947333,-78754.617194
42.828884,-592.164754,-740.205942,-76762.768900
42.831439,-11991.336260,-740.205942,-80593.246390
42.833993,-1332.370696,1628.453072,-74924.139704
42.836547,-2812.782580,-1924.535449,-81359.341888
42.839102,-2960.823768,-1036.288319,-76149.892501
42.841656,-12879.583391,296.082377,-77682.083497
42.844210,-7550.100608,2516.700203,-78754.617194
42.846765,-6513.812290,-3849.070898,-80746.465489
42.849319,-296.082377,1036.288319,-74464.482406
42.851874,3701.029710,-1776.494261,-79980.369991
42.854428,16580.613101,-1036.288319,-78754.617194
42.856982,13767.830521,1628.453072,-77069.207099
42.859537,-4293.194464,3108.864956,-76456.330700
42.862091,-888.247130,-3701.029710,-77988.521696
42.864646,3997.112087,-2072.576638,-78907.836294
42.867200,13323.706956,2664.741391,-75383.797003
42.869754,15988.448347,-444.123565,-77069.207099
42.872309,888.247130,-1628.453072,-78907.836294
42.874863,1480.411884,888.247130,-77375.645298
42.877418,2960.823768,-1480.411884,-79367.493593
42.879972,5181.441594,-1332.370696,-77682.083497
42.882526,10510.924376,1480.411884,-79367.493593
42.885081,13619.789333,-1332.370696,-79827.150892
42.887635,8586.388927,-2072.576638,-77222.426198
42.890196,7254.018232,1924.535449,-77069.207099
42.892757,4145.153275,2220.617826,-79061.055394
42.895317,1776.494261,-1924.535449,-76149.892501
42.897878,148.041188,740.205942,-78294.959896
42.900439,10214.842000,-2516.700203,-78448.178995
42.902999,-4589.276840,1924.535449,-77528.864398
42.905560,-5773.606348,-148.041188,-77682.083497
42.908121,-12287.418637,-1924.535449,-78141.740796
42.910682,-14211.954086,-1036.288319,-79980.369991
42.913242,740.205942,1036.288319,-74464.482406
42.915803,-1036.288319,-3256.906145,-80286.808190
42.918364,2516.700203,592.164754,-75843.454302
42.920924,-2072.576638,148.041188,-78907.836294
42.923485,-7698.141797,592.164754,-76762.768900
42.926046,-10510.924376,-1036.288319,-78754.617194
42.928606,-7105.977043,-1776.494261,-79520.712692
42.931167,296.082377,-888.247130,-79061.055394
42.933728,-888.247130,592.164754,-74617.701505
42.936289,-6513.812290,-1184.329507,-79214.274493
42.938849,-14804.118840,888.247130,-76149.892501
42.941410,-1628.453072,592.164754,-77222.426198
42.943971,-8142.265362,-1776.494261,-79061.055394
42.946531,-10807.006753,2664.741391,-75383.797003
42.949092,2960.823768,740.205942,-79673.931792
42.951653,21317.931130,-7994.224174,-79367.493593
42.954213,9326.594869,4145.153275,-72932.291410
42.956774,-3404.947333,2516.700203,-79520.712692
42.959335,-4145.153275,-2664.741391,-75690.235202
42.961896,5181.441594,-1628.453072,-79367.493593
42.964456,13471.748144,-592.164754,-75843.454302
42.967017,9326.594869,-296.082377,-77375.645298
42.969578,4885.359217,1184.329507,-77069.207099
42.972138,-740.205942,-3404.947333,-79061.055394
42.974699,7698.141797,1924.535449,-75690.235202
42.977260,3552.988522,-2368.659014,-78294.959896
42.979821,6217.729913,-148.041188,-78448.178995
42.982381,7105.977043,2664.741391,-75843.454302
42.984942,16876.695478,-2960.823768,-79061.055394
42.987503,6809.894666,-3404.947333,-77988.521696
42.990063,-888.247130,5181.441594,-75690.235202
42.992628,4441.235652,592.164754,-77069.207099
42.995194,5625.565159,-5181.441594,-81359.341888
42.997759,9030.512492,444.123565,-74158.044206
43.000324,-7698.141797,1776.494261,-79520.712692
43.002889,-10807.006753,740.205942,-79673.931792
43.005454,-10658.965565,-3108.864956,-78141.740796
43.008019,-15100.201217,148.041188,-77835.302597
43.010584,-1924.535449,2072.576638,-76762.768900
43.013150,3701.029710,-5181.441594,-80593.246390
43.015715,296.082377,296.082377,-76456.330700
43.018280,-6069.688724,888.247130,-77069.207099
43.020845,-11251.130318,-2072.576638,-77528.864398
43.023410,-4145.153275,1184.329507,-75537.016103
43.025975,-1036.288319,1480.411884,-76915.987999
43.028540,-6809.894666,-3552.988522,-80440.027290
43.031106,-3997.112087,3404.947333,-73851.606007
43.033671,296.082377,-1332.370696,-81206.122788
43.036236,-9030.512492,-888.247130,-76149.892501
43.038801,-7550.100608,-148.041188,-77682.083497
43.041366,-6069.688724,1332.370696,-80440.027290
43.043931,1628.453072,-1776.494261,-76303.111601
43.046496,2812.782580,-1036.288319,-78141.740796
43.049061,3849.070898,-1184.329507,-79980.369991
43.051627,19393.395680,4145.153275,-74617.701505
43.054192,-2960.823768,-2220.617826,-81359.341888
43.056757,-2220.617826,-1036.288319,-74158.044206
43.059322,4737.318029,-1332.370696,-80899.684589
43.061887,17764.942608,0.000000,-76762.768900
43.064452,13323.706956,-1184.329507,-77682.083497
43.067017,-592.164754,888.247130,-77222.426198
43.069583,6661.853478,-1036.288319,-78754.617194
43.072148,13619.789333,-2220.617826,-78907.836294
43.074713,444.123565,-3997.112087,-77682.083497
43.077278,11991.336260,7105.977043,-75230.577904
43.079843,18505.148550,-3404.947333,-80746.465489
43.082408,10214.842000,-3108.864956,-75383.797003
43.084973,-2664.741391,2516.700203,-77069.207099
43.087539,7698.141797,3849.070898,-79214.274493
43.090104,6365.771101,-6661.853478,-76456.330700
43.092669,-3701.029710,444.123565,-75537.016103
43.095205,-8290.306550,3997.112087,-77835.302597
43.097740,7698.141797,-148.041188,-77528.864398
43.100276,-14804.118840,-4737.318029,-80286.808190
43.102812,-17468.860231,4589.276840,-74004.825107
43.105348,-9770.718434,592.164754,-80286.808190
43.107883,1036.288319,-1480.411884,-76915.987999
43.110419,5033.400406,-2960.823768,-76149.892501
43.112955,-6513.812290,1036.288319,-79827.150892
43.115490,-8290.306550,2368.659014,-76609.549800
43.118026,-7846.182985,-2220.617826,-77835.302597
43.120562,444.123565,-148.041188,-76609.549800
43.123098,-6661.853478,-1776.494261,-80286.808190
43.125633,-10658.965565,-1628.453072,-75537.016103
43.128169,-6217.729913,2516.700203,-77528.864398
43.130705,888.247130,-740.205942,-79520.712692
43.133241,-10362.883188,-1184.329507,-76915.987999
43.135776,-14359.995275,1628.453072,-77988.521696
43.138312,-7402.059420,1776.494261,-78754.617194
43.140848,11843.295072,-3552.988522,-78907.836294
43.143384,13027.624579,-2960.823768,-76609.549800
43.145919,8290.306550,1480.411884,-78294.959896
43.148455,13175.665768,2664.741391,-77835.302597
43.150991,-2812.782580,-2960.823768,-78141.740796
43.153527,740.205942,-1036.288319,-78448.178995
43.156062,9770.718434,-2220.617826,-79061.055394
43.158598,13027.624579,592.164754,-77682.083497
43.161134,10214.842000,0.000000,-75843.454302
43.163670,3108.864956,-1184.329507,-79367.493593
43.166205,-1332.370696,2368.659014,-77375.645298
43.168741,4441.235652,-1924.535449,-77222.426198
43.171277,11843.295072,-3404.947333,-78294.959896
43.173813,17912.983796,-444.123565,-77222.426198
43.176348,9918.759623,444.123565,-76456.330700
43.178884,8290.306550,-2220.617826,-79367.493593
43.181420,3404.947333,1776.494261,-78601.398095
43.183956,5921.647536,-1628.453072,-77682.083497
43.186491,-2516.700203,-148.041188,-79980.369991
43.189027,9918.759623,-1036.288319,-76149.892501
43.191563,-1776.494261,444.123565,-79827.150892
43.194099,-9918.759623,444.123565,-77528.864398
43.196634,-15988.448347,-592.164754,-77222.426198
43.199170,-13471.748144,-592.164754,-79673.931792
43.201706,-1184.329507,1776.494261,-75383.797003
43.204241,2960.823768,-5033.400406,-79214.274493
43.206777,-1184.329507,-1184.329507,-77375.645298
43.209313,-3256.906145,1480.411884,-77835.302597
43.211849,-7698.141797,1332.370696,-77528.864398
43.214384,-11251.130318,0.000000,-77528.864398
43.216930,2220.617826,296.082377,-77988.521696
43.219476,-7402.059420,-3108.864956,-82125.437386
43.222022,-5773.606348,2812.782580,-72625.853210
43.224568,-2220.617826,-2812.782580,-82125.437386
43.227113,-5033.400406,-592.164754,-79673.931792
43.229659,-16136.489536,-1332.370696,-76915.987999
43.232205,-6661.853478,4145.153275,-76915.987999
43.234751,3404.947333,-4145.153275,-82125.437386
43.237296,19689.478057,-2812.782580,-74158.044206
43.239842,3701.029710,-2220.617826,-81818.999186
43.242388,14508.036463,2960.823768,-74924.139704
43.244934,0.000000,-1628.453072,-80593.246390
43.247479,1184.329507,-1924.535449,-76762.768900
43.250025,6957.935855,-1184.329507,-78448.178995
43.252571,10362.883188,2664.741391,-77528.864398
43.255117,16284.530724,-1776.494261,-78754.617194
43.257663,148.041188,-1776.494261,-77528.864398
43.260208,1776.494261,2516.700203,-77069.207099
43.262754,6513.812290,-592.164754,-79520.712692
43.265300,6661.853478,-2960.823768,-77682.083497
43.267846,17764.942608,1924.535449,-77528.864398
43.270391,13471.748144,-3997.112087,-80133.589091
43.272937,3108.864956,-3552.988522,-77988.521696
43.275483,2664.741391,3256.906145,-76762.768900
43.278029,7254.018232,-1776.494261,-80593.246390
43.280574,2220.617826,-3256.906145,-76762.768900
43.283120,2516.700203,-296.082377,-76456.330700
43.285666,-444.123565,296.082377,-80746.465489
43.288212,-3404.947333,-2368.659014,-76456.330700
43.290758,-23390.507767,-740.205942,-79214.274493
43.293303,-11103.089130,2516.700203,-76609.549800
43.295849,5181.441594,1184.329507,-77222.426198
43.298403,0.000000,-6809.894666,-80133.589091
43.300956,-2516.700203,1184.329507,-76149.892501
43.303510,1332.370696,888.247130,-78294.959896
43.306063,-5625.565159,-444.123565,-77528.864398
43.308617,-13915.871710,592.164754,-76762.768900
43.311170,-2368.659014,-296.082377,-79520.712692
43.313724,740.205942,-2368.659014,-79827.150892
43.316277,-7402.059420,888.247130,-74311.263306
43.318831,-6365.771101,-888.247130,-78448.178995
43.321384,-9178.553681,2516.700203,-79367.493593
43.323938,-9326.594869,-1628.453072,-78448.178995
43.326491,-9770.718434,2664.741391,-77375.645298
43.329045,3256.906145,-1628.453072,-79061.055394
43.331598,20281.642811,-3849.070898,-77835.302597
43.334152,4441.235652,-1036.288319,-79061.055394
43.336705,8882.471304,4441.235652,-75230.577904
43.339259,-2368.659014,-3404.947333,-78907.836294
43.341812,5181.441594,-2516.700203,-77835.302597
43.344366,8586.388927,-1480.411884,-76915.987999
43.346919,9178.553681,592.164754,-78294.959896
43.349473,13471.748144,-444.123565,-77835.302597
43.352027,4441.235652,-4145.153275,-76456.330700
43.354580,-5181.441594,2516.700203,-76609.549800
43.357134,9474.636058,2960.823768,-77528.864398
43.359687,11991.336260,-5921.647536,-79520.712692
43.362241,10658.965565,-3256.906145,-77375.645298
43.364794,6365.771101,3997.112087,-76149.892501
43.367348,14063.912898,-3849.070898,-81972.218286
43.369901,-1036.288319,0.000000,-76456.330700
43.372455,148.041188,2664.741391,-75843.454302
43.375008,3404.947333,-3108.864956,-79980.369991
43.377562,8734.430116,-2072.576638,-76456.330700
43.380115,-5625.565159,3997.112087,-78907.836294
43.382669,-10658.965565,-2220.617826,-79673.931792
43.385222,-13619.789333,1332.370696,-74004.825107
43.387776,-13175.665768,444.123565,-79827.150892
43.390329,2812.782580,2368.659014,-74617.701505
43.392883,5033.400406,-4293.194464,-78907.836294
43.395436,-1332.370696,-1628.453072,-78294.959896
43.397990,-8142.265362,3849.070898,-74311.263306
43.400554,-9030.512492,-592.164754,-78141.740796
43.403113,-6809.894666,-592.164754,-77375.645298
43.405673,-1924.535449,-592.164754,-77528.864398
43.408232,-1036.288319,-148.041188,-79827.150892
43.410791,-11399.171507,-1480.411884,-80133.589091
43.413350,-4293.194464,1480.411884,-75996.673402
43.415910,-9326.594869,-2516.700203,-81512.560987
43.418469,-9326.594869,1628.453072,-75230.577904
43.421028,-2072.576638,1924.535449,-80286.808190
43.423588,15248.242405,-5773.606348,-80593.246390
43.426147,12287.418637,0.000000,-75843.454302
43.428706,9770.718434,740.205942,-78294.959896
43.431266,3552.988522,888.247130,-76762.768900
43.433825,-1776.494261,-5773.606348,-79673.931792
43.436384,4293.194464,1480.411884,-75690.235202
43.438944,17320.819043,1332.370696,-79520.712692
43.441503,16876.695478,-3552.988522,-79061.055394
43.444062,2368.659014,-1184.329507,-76456.330700
43.446622,1924.535449,-592.164754,-78601.398095
43.449181,7105.977043,148.041188,-79061.055394
43.451740,3849.070898,-2368.659014,-77222.426198
43.454300,14508.036463,1332.370696,-76303.111601
43.456859,13767.830521,-1776.494261,-81052.903688
43.459418,8290.306550,-4589.276840,-79214.274493
43.461978,-1776.494261,2516.700203,-76609.549800
43.464537,2812.782580,-444.123565,-79673.931792
43.467096,0.000000,-2664.741391,-78601.398095
43.469656,8438.347739,0.000000,-75843.454302
43.472215,592.164754,-888.247130,-82278.656485
43.474774,-6661.853478,-444.123565,-79214.274493
43.477334,-17172.777854,-888.247130,-75077.358804
43.479893,-17172.777854,2812.782580,-78294.959896
43.482452,1924.535449,2220.617826,-76762.768900
43.485012,2368.659014,-6809.894666,-79367.493593
43.487571,-2960.823768,-740.205942,-76149.892501
43.490130,-2516.700203,1036.288319,-77682.083497
43.492690,-3997.112087,-1332.370696,-77069.207099
43.495249,-20873.807564,-296.082377,-78448.178995
43.497808,-7254.018232,4441.235652,-75690.235202
43.500368,1776.494261,-1628.453072,-81972.218286
43.502932,-1628.453072,-4441.235652,-75230.577904
43.505497,-15988.448347,2664.741391,-76609.549800
43.508061,-7254.018232,1036.288319,-81206.122788
43.510625,-5773.606348,-2960.823768,-77682.083497
43.513190,-6217.729913,3256.906145,-76609.549800
43.515754,5773.606348,-3108.864956,-81206.122788
43.518319,19393.395680,-2812.782580,-76456.330700
43.520883,16728.654289,1924.535449,-76456.330700
43.523448,-2220.617826,0.000000,-78294.959896
43.526012,-1924.535449,-1480.411884,-75537.016103
43.528577,2960.823768,-2960.823768,-80286.808190
43.531141,16284.530724,2516.700203,-75996.673402
43.533705,8438.347739,-1480.411884,-80593.246390
43.536270,3997.112087,-1480.411884,-77222.426198
43.538834,3701.029710,-2664.741391,-78294.959896
43.541399,1628.453072,148.041188,-77835.302597
43.543963,2664.741391,-2960.823768,-77069.207099
43.546528,14952.160028,444.123565,-75383.797003
43.549092,10658.965565,-2368.659014,-79827.150892
43.551656,8290.306550,-1480.411884,-74004.825107
43.554221,3108.864956,1036.288319,-78754.617194
43.556785,-1036.288319,-592.164754,-77375.645298
43.559350,3404.947333,3108.864956,-76609.549800
43.561914,4145.153275,-3997.112087,-77682.083497
43.564479,2812.782580,1924.535449,-77528.864398
43.567043,-5625.565159,-1184.329507,-77375.645298
43.569608,-20429.683999,-4589.276840,-76456.330700
43.572172,-13175.665768,5477.523971,-74924.139704
43.574736,-592.164754,-592.164754,-79214.274493
43.577301,2220.617826,-3997.112087,-75843.454302
43.579865,1036.288319,592.164754,-79214.274493
43.582430,-3552.988522,-1628.453072,-79367.493593
43.584994,-14359.995275,-444.123565,-75537.016103
43.587559,-10214.842000,4145.153275,-76149.892501
43.590123,592.164754,-3108.864956,-80440.027290
43.592688,-9326.594869,-2072.576638,-76303.111601
43.595252,-11991.336260,2960.823768,-75843.454302
43.597816,2368.659014,-2664.741391,-79214.274493
43.600381,-14359.995275,-2072.576638,-77222.426198
43.602945,-11251.130318,5625.565159,-75537.016103
43.605513,444.123565,-3108.864956,-80593.246390
43.608081,4293.194464,-3404.947333,-76609.549800
43.610650,8586.388927,4441.235652,-74158.044206
43.613218,19985.560434,1480.411884,-78601.398095
43.615786,1776.494261,-2812.782580,-77835.302597
43.618354,-5181.441594,-1184.329507,-74311.263306
43.620922,3108.864956,1924.535449,-78141.740796
43.623490,16284.530724,444.123565,-77069.207099
43.626058,13471.748144,-2072.576638,-77528.864398
43.628626,4145.153275,-148.041188,-76915.987999
43.631194,592.164754,-3552.988522,-79214.274493
43.633762,11103.089130,-148.041188,-78141.740796
43.636330,3849.070898,-2368.659014,-78601.398095
43.638898,11695.253884,1480.411884,-76609.549800
43.641466,19245.354492,-1036.288319,-79980.369991
43.644034,10807.006753,-4145.153275,-78907.836294
43.646603,-2072.576638,1036.288319,-75537.016103
43.649171,1036.288319,1036.288319,-79827.150892
43.651739,592.164754,-2072.576638,-78294.959896
43.654307,2960.823768,-740.205942,-74924.139704
43.656875,1776.494261,2960.823768,-76915.987999
43.659443,-10362.883188,-4737.318029,-81052.903688
43.662011,-19541.436869,0.000000,-74158.044206
43.664579,-18357.107362,1628.453072,-78907.836294
43.667147,5625.565159,2812.782580,-75843.454302
43.669715,2220.617826,-6809.894666,-79980.369991
43.672283,-4589.276840,2516.700203,-76303.111601
43.674851,-1332.370696,1036.288319,-78601.398095
43.677419,-3997.112087,-888.247130,-76915.987999
43.679987,-9918.759623,-3108.864956,-77988.521696
43.682555,-9770.718434,2664.741391,-75996.673402
43.685124,1332.370696,-1628.453072,-80593.246390
43.687692,-4441.235652,-4145.153275,-77375.645298
43.690260,-13619.789333,0.000000,-75230.577904
43.692828,-8438.347739,740.205942,-80133.589091
43.695396,-9030.512492,-1184.329507,-78448.178995
43.697964,1332.370696,2072.576638,-75383.797003
43.700532,16728.654289,-6365.771101,-77069.207099
43.703100,10658.965565,-740.205942,-80593.246390
43.705668,10066.800811,2664.741391,-75537.016103
43.708207,1332.370696,-3552.988522,-79980.369991
43.710746,2516.700203,-2664.741391,-78754.617194
43.713284,6809.894666,740.205942,-76762.768900
43.715823,15100.201217,740.205942,-79673.931792
43.718362,11991.336260,-2812.782580,-78141.740796
43.720901,1924.535449,-3108.864956,-78907.836294
43.723440,1184.329507,2516.700203,-76915.987999
43.725978,6513.812290,888.247130,-77988.521696
43.728517,17764.942608,-2220.617826,-77835.302597
43.731056,5329.482782,740.205942,-77835.302597
43.733595,13323.706956,1332.370696,-75383.797003
43.736134,10658.965565,-4885.359217,-81359.341888
43.738672,-5625.565159,-444.123565,-75690.235202
43.741211,-444.123565,5181.441594,-75690.235202
43.743750,9622.677246,-3256.906145,-80286.808190
43.746289,6661.853478,-3404.947333,-77528.864398
43.748828,-12583.501014,3108.864956,-76149.892501
43.751366,-14508.036463,-1332.370696,-79827.150892
43.753905,-8882.471304,-1036.288319,-77528.864398
43.756444,-11103.089130,1184.329507,-76609.549800
43.758983,-2368.659014,1480.411884,-77988.521696
43.761522,13027.624579,-5625.565159,-79980.369991
43.764060,-4441.235652,-3552.988522,-78294.959896
43.766599,-11547.212695,4737.318029,-74311.263306
43.769138,-14656.077652,-296.082377,-79214.274493
43.771677,2072.576638,444.123565,-79367.493593
43.774215,-2960.823768,-4737.318029,-79367.493593
43.776754,-13027.624579,1776.494261,-76915.987999
43.779293,-4441.235652,1036.288319,-81206.122788
43.781832,-6661.853478,-5181.441594,-79673.931792
43.784371,-11251.130318,3256.906145,-74004.825107
43.786909,-5625.565159,1184.329507,-80440.027290
43.789448,12287.418637,-9474.636058,-80899.684589
43.791987,9770.718434,1036.288319,-75537.016103
43.794526,8882.471304,2516.700203,-77528.864398
43.797065,5033.400406,-740.205942,-77682.083497
43.799603,592.164754,-2516.700203,-77528.864398
43.802142,3404.947333,-444.123565,-75843.454302
43.804681,11103.089130,3701.029710,-78141.740796
43.807220,16284.530724,-2516.700203,-77682.083497
43.809767,6957.935855,-1628.453072,-75690.235202
43.812315,-6365.771101,-740.205942,-78141.740796
43.814863,5477.523971,2960.823768,-76762.768900
43.817410,18357.107362,-740.205942,-78907.836294
43.819958,8882.471304,-1924.535449,-78294.959896
43.822506,8586.388927,2812.782580,-75996.673402
43.825053,9326.594869,1184.329507,-80440.027290
43.827601,4441.235652,-6365.771101,-79520.712692
43.830149,-3552.988522,2960.823768,-71859.757712
43.832696,3552.988522,888.247130,-79520.712692
43.835244,3552.988522,-5329.482782,-81512.560987
